{
  "package": "sdtm-ct-2024-09-27",
  "source": "NCI EVS CDISC Controlled Terminology 2024-09-27",
  "codelists": {
    "SEX": [
      "M",
      "F",
      "U",
      "UNDIFFERENTIATED"
    ],
    "NY": [
      "Y",
      "N"
    ],
    "ETHNIC": [
      "HISPANIC OR LATINO",
      "NOT HISPANIC OR LATINO",
      "NOT REPORTED",
      "UNKNOWN"
    ],
    "AEOUT": [
      "FATAL",
      "NOT RECOVERED/NOT RESOLVED",
      "RECOVERED/RESOLVED",
      "RECOVERED/RESOLVED WITH SEQUELAE",
      "RECOVERING/RESOLVING",
      "UNKNOWN"
    ],
    "AESEV": [
      "MILD",
      "MODERATE",
      "SEVERE"
    ],
    "AEREL": [
      "NOT RELATED",
      "UNLIKELY RELATED",
      "POSSIBLY RELATED",
      "PROBABLY RELATED",
      "RELATED"
    ],
    "AETOXGR": [
      "1",
      "2",
      "3",
      "4",
      "5"
    ],
    "RACE": [
      "AMERICAN INDIAN OR ALASKA NATIVE",
      "ASIAN",
      "BLACK OR AFRICAN AMERICAN",
      "NATIVE HAWAIIAN OR OTHER PACIFIC ISLANDER",
      "NOT REPORTED",
      "UNKNOWN",
      "WHITE",
      "MULTIPLE"
    ],
    "COUNTRY": [
      "AFG",
      "ALB",
      "DZA",
      "AND",
      "AGO",
      "ATG",
      "ARG",
      "ARM",
      "AUS",
      "AUT",
      "AZE",
      "BHS",
      "BHR",
      "BGD",
      "BRB",
      "BLR",
      "BEL",
      "BLZ",
      "BEN",
      "BTN",
      "BOL",
      "BIH",
      "BWA",
      "BRA",
      "BRN",
      "BGR",
      "BFA",
      "BDI",
      "CPV",
      "KHM",
      "CMR",
      "CAN",
      "CAF",
      "TCD",
      "CHL",
      "CHN",
      "COL",
      "COM",
      "COD",
      "COG",
      "CRI",
      "CIV",
      "HRV",
      "CUB",
      "CYP",
      "CZE",
      "DNK",
      "DJI",
      "DOM",
      "ECU",
      "EGY",
      "SLV",
      "GNQ",
      "ERI",
      "EST",
      "SWZ",
      "ETH",
      "FJI",
      "FIN",
      "FRA",
      "GAB",
      "GMB",
      "GEO",
      "DEU",
      "GHA",
      "GRC",
      "GRD",
      "GTM",
      "GIN",
      "GNB",
      "GUY",
      "HTI",
      "HND",
      "HUN",
      "ISL",
      "IND",
      "IDN",
      "IRN",
      "IRQ",
      "IRL",
      "ISR",
      "ITA",
      "JAM",
      "JPN",
      "JOR",
      "KAZ",
      "KEN",
      "KIR",
      "PRK",
      "KOR",
      "KWT",
      "KGZ",
      "LAO",
      "LVA",
      "LBN",
      "LSO",
      "LBR",
      "LBY",
      "LIE",
      "LTU",
      "LUX",
      "MDG",
      "MWI",
      "MYS",
      "MDV",
      "MLI",
      "MLT",
      "MHL",
      "MRT",
      "MUS",
      "MEX",
      "FSM",
      "MDA",
      "MCO",
      "MNG",
      "MNE",
      "MAR",
      "MOZ",
      "MMR",
      "NAM",
      "NRU",
      "NPL",
      "NLD",
      "NZL",
      "NIC",
      "NER",
      "NGA",
      "MKD",
      "NOR",
      "OMN",
      "PAK",
      "PLW",
      "PAN",
      "PNG",
      "PRY",
      "PER",
      "PHL",
      "POL",
      "PRT",
      "QAT",
      "ROU",
      "RUS",
      "RWA",
      "KNA",
      "LCA",
      "VCT",
      "WSM",
      "SMR",
      "STP",
      "SAU",
      "SEN",
      "SRB",
      "SYC",
      "SLE",
      "SGP",
      "SVK",
      "SVN",
      "SLB",
      "SOM",
      "ZAF",
      "SSD",
      "ESP",
      "LKA",
      "SDN",
      "SUR",
      "SWE",
      "CHE",
      "SYR",
      "TWN",
      "TJK",
      "TZA",
      "THA",
      "TLS",
      "TGO",
      "TON",
      "TTO",
      "TUN",
      "TUR",
      "TKM",
      "TUV",
      "UGA",
      "UKR",
      "ARE",
      "GBR",
      "USA",
      "URY",
      "UZB",
      "VUT",
      "VEN",
      "VNM",
      "YEM",
      "ZMB",
      "ZWE"
    ],
    "AGEU": [
      "YEARS",
      "MONTHS",
      "WEEKS",
      "DAYS",
      "HOURS",
      "MINUTES",
      "SECONDS"
    ],
    "VSRESU": [
      "mmHg",
      "kg",
      "m",
      "cm",
      "%",
      "beats/min",
      "breaths/min",
      "/min",
      "C",
      "F",
      "kg/m2",
      "bpm"
    ],
    "LBSTRESU": [
      "g/dL",
      "mg/dL",
      "mmol/L",
      "U/L",
      "g/L",
      "mg/L",
      "%",
      "10^3/uL",
      "10^6/uL",
      "GI/L",
      "IU/L",
      "mIU/mL",
      "mU/L",
      "pg/mL",
      "ng/mL",
      "ug/mL",
      "mEq/L",
      "fL",
      "pg",
      "pmol/L",
      "fmol",
      "fmol/L",
      "fmol(Fe)",
      "seconds",
      "ratio",
      "1",
      "nmol/L",
      "umol/L",
      "10^9/L",
      "10^12/L",
      "TI/L",
      "mg/g",
      "ug/L",
      "kU/L",
      "mkat/L",
      "ukat/L"
    ],
    "NRIND": [
      "LOW",
      "NORMAL",
      "HIGH",
      "CRITICALLY LOW",
      "CRITICALLY HIGH",
      "CRITICALLY ABNORMAL",
      "ABNORMAL",
      "NORMAL LOW",
      "NORMAL HIGH"
    ],
    "IECAT": [
      "INCLUSION",
      "EXCLUSION"
    ],
    "AEACN": [
      "DOSE NOT CHANGED",
      "DOSE REDUCED",
      "DOSE INCREASED",
      "DOSE RATE REDUCED",
      "DOSE DELAYED",
      "INTERRUPTED",
      "DISCONTINUED",
      "NOT APPLICABLE",
      "UNKNOWN",
      "NOT REPORTED"
    ],
    "ROUTE": [
      "AURICULAR", "BUCCAL", "CUTANEOUS", "DENTAL", "ENDOCERVICAL",
      "ENDOSINUSIAL", "ENDOTRACHEAL", "ENTERAL", "EPIDURAL", "EXTRA-AMNIOTIC",
      "EXTRACORPOREAL", "HEMODIALYSIS", "INTRA-ARTICULAR", "INTRABRONCHIAL",
      "INTRABURSAL", "INTRACARDIAC", "INTRACARTILAGINOUS", "INTRACAVERNOUS",
      "INTRACEREBRAL", "INTRACERVICAL", "INTRACISTERNAL", "INTRACORNEAL",
      "INTRADUCTAL", "INTRADUODENAL", "INTRADURAL", "INTRAEPIDERMAL",
      "INTRAESOPHAGEAL", "INTRAGASTRIC", "INTRAGINGIVAL", "INTRAILEAL",
      "INTRALESIONAL", "INTRALUMINAL", "INTRALYMPHATIC", "INTRAMEDULLARY",
      "INTRAMUSCULAR", "INTRAOCULAR", "INTRAOVARIAN", "INTRAPERICARDIAL",
      "INTRAPERITONEAL", "INTRAPLEURAL", "INTRAPROSTATIC", "INTRAPULMONARY",
      "INTRASINAL", "INTRASPINAL", "INTRASYNOVIAL", "INTRATENDINOUS",
      "INTRATESTICULAR", "INTRATHECAL", "INTRATHORACIC", "INTRATUBULAR",
      "INTRATUMOR", "INTRATYMPANIC", "INTRAUTERINE", "INTRAVASCULAR",
      "INTRAVENOUS", "INTRAVENOUS BOLUS", "INTRAVENOUS DRIP", "INTRAVESICAL",
      "INTRAVITREAL", "IONTOPHORESIS", "IRRIGATION", "LARYNGEAL", "NASAL",
      "NASOGASTRIC", "NOT APPLICABLE", "OCULAR", "OPHTHALMIC", "ORAL",
      "OROPHARYNGEAL", "OTHER", "PARENTERAL", "PERIARTICULAR", "PERIDURAL",
      "PERINEURAL", "PERIODONTAL", "RECTAL", "RESPIRATORY (INHALATION)",
      "RETROBULBAR", "SOFT TISSUE", "SUBARACHNOID", "SUBCONJUNCTIVAL",
      "SUBCUTANEOUS", "SUBGINGIVAL", "SUBLINGUAL", "SUBMUCOSAL", "TOPICAL",
      "TRANSDERMAL", "TRANSLINGUAL", "TRANSMUCOSAL", "TRANSPLACENTAL",
      "TRANSTRACHEAL", "TRANSTYMPANIC", "UNASSIGNED", "UNKNOWN", "URETHRAL",
      "VAGINAL"
    ],
    "FRM": [
      "AEROSOL", "AEROSOL FOAM", "BAR SOAP", "BEAD", "CAPSULE",
      "CAPSULE DELAYED RELEASE", "CAPSULE EXTENDED RELEASE", "CAPSULE ORAL",
      "CAPSULE SOLUBLE", "CELL", "CLOTH", "CONCENTRATE", "CREAM", "CRYSTAL",
      "DISK", "DRESSING", "DROPS", "ELIXIR", "EMULSION", "ENEMA", "FILM",
      "FILM-COATED TABLET", "FOAM", "GEL", "GRANULES", "GUM", "IMPLANT",
      "INFUSION", "INHALANT", "INJECTION", "INSERT", "INTRAUTERINE DEVICE",
      "JELLY", "LINIMENT", "LIQUID", "LOTION", "LOZENGE", "OINTMENT",
      "PATCH", "PELLET", "PESSARY", "PILL", "PLASTER", "POWDER",
      "RECTAL OINTMENT", "SHAMPOO", "SOLUTION", "SPRAY", "SUPPOSITORY",
      "SUSPENSION", "SYRUP", "TABLET", "TABLET BUCCAL", "TABLET CHEWABLE",
      "TABLET COATED", "TABLET DELAYED RELEASE", "TABLET DISPERSIBLE",
      "TABLET EFFERVESCENT", "TABLET EXTENDED RELEASE", "TABLET ORODISPERSIBLE",
      "TABLET SOLUBLE", "TAPE", "TINCTURE", "TROCHE", "UNASSIGNED",
      "UNKNOWN", "WAFER"
    ],
    "EPOCH": [
      "BASELINE", "DOUBLE-BLIND TREATMENT", "FOLLOW-UP", "INDUCTION",
      "LEAD-IN", "MAINTENANCE", "OPEN-LABEL EXTENSION", "OPEN-LABEL TREATMENT",
      "POST-DOSE", "POST-TREATMENT", "PRE-DOSE", "RANDOMIZATION", "RUN-IN",
      "SCREENING", "SINGLE-BLIND TREATMENT", "TREATMENT", "UNBLINDED TREATMENT",
      "WASHOUT"
    ],
    "FREQ": [
      "BID", "BID PRN", "CONT", "DAILY", "EVERY 2 HOURS", "EVERY 2 WEEKS",
      "EVERY 24 HOURS", "EVERY 3 HOURS", "EVERY 3 WEEKS", "EVERY 4 HOURS",
      "EVERY 4 WEEKS", "EVERY 48 HOURS", "EVERY 6 HOURS", "EVERY 8 HOURS",
      "EVERY OTHER DAY", "MONTHLY", "ONCE", "ON DEMAND", "PRN", "Q15MIN",
      "QD", "QHS", "QID", "QOD", "QW", "SEMI-MONTHLY", "SINGLE", "TID",
      "TWICE A MONTH", "UNKNOWN", "WEEKLY"
    ]
  }
}
