{
  "standard": "sdtmig",
  "version": "3.4",
  "generated": "2026-07-14T00:00:00Z",
  "source": "CDISC SDTM Implementation Guide 3.4, hand-curated from public specification",
  "checksum": "5146d20551cceca6",
  "rules": [
    {
      "core_id": "SDTM-001",
      "rule_type": "DOMAIN_PRESENCE_CHECK",
      "executability": "Fully Executable",
      "sensitivity": "Error",
      "description": "DM (Demographics) domain is required in every SDTM submission.",
      "authority": "CDISC",
      "standards": [
        "sdtmig"
      ],
      "classes": [],
      "domains": [],
      "datasets": [],
      "operations": [],
      "conditions": {},
      "actions": {
        "id": "domain_presence",
        "params": {
          "required_domains": [
            "DM"
          ],
          "prohibited_domains": [],
          "message": "DM domain must be present in every SDTM submission."
        }
      }
    },
    {
      "core_id": "SDTM-002",
      "rule_type": "RECORD_CHECK",
      "executability": "Fully Executable",
      "sensitivity": "Error",
      "description": "STUDYID must not be null in any domain.",
      "authority": "CDISC",
      "standards": [
        "sdtmig"
      ],
      "classes": [
        "All"
      ],
      "domains": [],
      "datasets": [],
      "operations": [],
      "conditions": {
        "all": [
          {
            "name": "STUDYID",
            "operator": "is_null",
            "value": null
          }
        ]
      },
      "actions": {
        "id": "generate_record_error",
        "params": {
          "message": "STUDYID must not be null."
        }
      }
    },
    {
      "core_id": "SDTM-003",
      "rule_type": "RECORD_CHECK",
      "executability": "Fully Executable",
      "sensitivity": "Error",
      "description": "DOMAIN must not be null in any SDTM dataset.",
      "authority": "CDISC",
      "standards": [
        "sdtmig"
      ],
      "classes": [
        "All"
      ],
      "domains": [],
      "datasets": [],
      "operations": [],
      "conditions": {
        "all": [
          {
            "name": "DOMAIN",
            "operator": "is_null",
            "value": null
          }
        ]
      },
      "actions": {
        "id": "generate_record_error",
        "params": {
          "message": "DOMAIN must not be null."
        }
      }
    },
    {
      "core_id": "SDTM-004",
      "rule_type": "RECORD_CHECK",
      "executability": "Fully Executable",
      "sensitivity": "Error",
      "description": "USUBJID must not be null in any SDTM dataset.",
      "authority": "CDISC",
      "standards": [
        "sdtmig"
      ],
      "classes": [
        "All"
      ],
      "domains": [],
      "datasets": [],
      "operations": [],
      "conditions": {
        "all": [
          {
            "name": "USUBJID",
            "operator": "is_null",
            "value": null
          }
        ]
      },
      "actions": {
        "id": "generate_record_error",
        "params": {
          "message": "USUBJID must not be null."
        }
      }
    },
    {
      "core_id": "SDTM-005",
      "rule_type": "DATASET_CONTENTS_CHECK",
      "executability": "Fully Executable",
      "sensitivity": "Error",
      "description": "STUDYID must be consistent (same value) across all records in a dataset.",
      "authority": "CDISC",
      "standards": [
        "sdtmig"
      ],
      "classes": [
        "All"
      ],
      "domains": [],
      "datasets": [],
      "operations": [
        {
          "operator": "consistency_check",
          "params": {
            "column": "STUDYID"
          }
        }
      ],
      "conditions": {
        "all": [
          {
            "name": "_pb_STUDYID_consistent",
            "operator": "equal_to",
            "value": false
          }
        ]
      },
      "actions": {
        "id": "generate_dataset_error",
        "params": {
          "message": "STUDYID must be the same value across all records."
        }
      }
    },
    {
      "core_id": "SDTM-006",
      "rule_type": "DATASET_CONTENTS_CHECK",
      "executability": "Fully Executable",
      "sensitivity": "Error",
      "description": "DOMAIN must be consistent (same value) across all records in a dataset.",
      "authority": "CDISC",
      "standards": [
        "sdtmig"
      ],
      "classes": [
        "All"
      ],
      "domains": [],
      "datasets": [],
      "operations": [
        {
          "operator": "consistency_check",
          "params": {
            "column": "DOMAIN"
          }
        }
      ],
      "conditions": {
        "all": [
          {
            "name": "_pb_DOMAIN_consistent",
            "operator": "equal_to",
            "value": false
          }
        ]
      },
      "actions": {
        "id": "generate_dataset_error",
        "params": {
          "message": "DOMAIN must be the same value across all records."
        }
      }
    },
    {
      "core_id": "SDTM-007",
      "rule_type": "RECORD_CHECK",
      "executability": "Fully Executable",
      "sensitivity": "Error",
      "description": "SEX in DM must use values from the CDISC controlled terminology codelist SEX.",
      "authority": "CDISC",
      "standards": [
        "sdtmig"
      ],
      "classes": [
        "Special-Purpose"
      ],
      "domains": [
        "DM"
      ],
      "datasets": [],
      "operations": [
        {
          "operator": "codelist_check",
          "params": {
            "column": "SEX",
            "codelist": "SEX"
          }
        }
      ],
      "conditions": {
        "all": [
          {
            "name": "SEX",
            "operator": "is_not_null",
            "value": null
          },
          {
            "name": "_pb_SEX_valid",
            "operator": "equal_to",
            "value": false
          }
        ]
      },
      "actions": {
        "id": "generate_record_error",
        "params": {
          "message": "SEX value is not in the SEX codelist."
        }
      }
    },
    {
      "core_id": "SDTM-008",
      "rule_type": "RECORD_CHECK",
      "executability": "Fully Executable",
      "sensitivity": "Error",
      "description": "RACE in DM must use values from the CDISC controlled terminology codelist RACE.",
      "authority": "CDISC",
      "standards": [
        "sdtmig"
      ],
      "classes": [
        "Special-Purpose"
      ],
      "domains": [
        "DM"
      ],
      "datasets": [],
      "operations": [
        {
          "operator": "codelist_check",
          "params": {
            "column": "RACE",
            "codelist": "RACE"
          }
        }
      ],
      "conditions": {
        "all": [
          {
            "name": "RACE",
            "operator": "is_not_null",
            "value": null
          },
          {
            "name": "_pb_RACE_valid",
            "operator": "equal_to",
            "value": false
          }
        ]
      },
      "actions": {
        "id": "generate_record_error",
        "params": {
          "message": "RACE value is not in the RACE codelist."
        }
      }
    },
    {
      "core_id": "SDTM-009",
      "rule_type": "RECORD_CHECK",
      "executability": "Fully Executable",
      "sensitivity": "Error",
      "description": "COUNTRY in DM must use ISO 3166 alpha-3 country codes (CDISC COUNTRY codelist).",
      "authority": "CDISC",
      "standards": [
        "sdtmig"
      ],
      "classes": [
        "Special-Purpose"
      ],
      "domains": [
        "DM"
      ],
      "datasets": [],
      "operations": [
        {
          "operator": "codelist_check",
          "params": {
            "column": "COUNTRY",
            "codelist": "COUNTRY"
          }
        }
      ],
      "conditions": {
        "all": [
          {
            "name": "COUNTRY",
            "operator": "is_not_null",
            "value": null
          },
          {
            "name": "_pb_COUNTRY_valid",
            "operator": "equal_to",
            "value": false
          }
        ]
      },
      "actions": {
        "id": "generate_record_error",
        "params": {
          "message": "COUNTRY value is not in the COUNTRY codelist (ISO 3166 alpha-3)."
        }
      }
    },
    {
      "core_id": "SDTM-010",
      "rule_type": "RECORD_CHECK",
      "executability": "Fully Executable",
      "sensitivity": "Error",
      "description": "DMDTC in DM must be in ISO 8601 extended datetime format.",
      "authority": "CDISC",
      "standards": [
        "sdtmig"
      ],
      "classes": [
        "Special-Purpose"
      ],
      "domains": [
        "DM"
      ],
      "datasets": [],
      "operations": [
        {
          "operator": "iso8601_check",
          "params": {
            "column": "DMDTC"
          }
        }
      ],
      "conditions": {
        "all": [
          {
            "name": "DMDTC",
            "operator": "is_not_null",
            "value": null
          },
          {
            "name": "_pb_DMDTC_iso8601",
            "operator": "equal_to",
            "value": false
          }
        ]
      },
      "actions": {
        "id": "generate_record_error",
        "params": {
          "message": "DMDTC does not conform to ISO 8601 extended datetime format."
        }
      }
    },
    {
      "core_id": "SDTM-011",
      "rule_type": "RECORD_CHECK",
      "executability": "Fully Executable",
      "sensitivity": "Error",
      "description": "RFSTDTC in DM must be in ISO 8601 extended datetime format when present.",
      "authority": "CDISC",
      "standards": [
        "sdtmig"
      ],
      "classes": [
        "Special-Purpose"
      ],
      "domains": [
        "DM"
      ],
      "datasets": [],
      "operations": [
        {
          "operator": "iso8601_check",
          "params": {
            "column": "RFSTDTC"
          }
        }
      ],
      "conditions": {
        "all": [
          {
            "name": "RFSTDTC",
            "operator": "is_not_null",
            "value": null
          },
          {
            "name": "_pb_RFSTDTC_iso8601",
            "operator": "equal_to",
            "value": false
          }
        ]
      },
      "actions": {
        "id": "generate_record_error",
        "params": {
          "message": "RFSTDTC does not conform to ISO 8601 extended datetime format."
        }
      }
    },
    {
      "core_id": "SDTM-012",
      "rule_type": "RECORD_CHECK",
      "executability": "Fully Executable",
      "sensitivity": "Error",
      "description": "RFENDTC in DM must be in ISO 8601 extended datetime format when present.",
      "authority": "CDISC",
      "standards": [
        "sdtmig"
      ],
      "classes": [
        "Special-Purpose"
      ],
      "domains": [
        "DM"
      ],
      "datasets": [],
      "operations": [
        {
          "operator": "iso8601_check",
          "params": {
            "column": "RFENDTC"
          }
        }
      ],
      "conditions": {
        "all": [
          {
            "name": "RFENDTC",
            "operator": "is_not_null",
            "value": null
          },
          {
            "name": "_pb_RFENDTC_iso8601",
            "operator": "equal_to",
            "value": false
          }
        ]
      },
      "actions": {
        "id": "generate_record_error",
        "params": {
          "message": "RFENDTC does not conform to ISO 8601 extended datetime format."
        }
      }
    },
    {
      "core_id": "SDTM-013",
      "rule_type": "RECORD_CHECK",
      "executability": "Fully Executable",
      "sensitivity": "Error",
      "description": "DTHDTC in DM must be in ISO 8601 extended datetime format when present.",
      "authority": "CDISC",
      "standards": [
        "sdtmig"
      ],
      "classes": [
        "Special-Purpose"
      ],
      "domains": [
        "DM"
      ],
      "datasets": [],
      "operations": [
        {
          "operator": "iso8601_check",
          "params": {
            "column": "DTHDTC"
          }
        }
      ],
      "conditions": {
        "all": [
          {
            "name": "DTHDTC",
            "operator": "is_not_null",
            "value": null
          },
          {
            "name": "_pb_DTHDTC_iso8601",
            "operator": "equal_to",
            "value": false
          }
        ]
      },
      "actions": {
        "id": "generate_record_error",
        "params": {
          "message": "DTHDTC does not conform to ISO 8601 extended datetime format."
        }
      }
    },
    {
      "core_id": "SDTM-014",
      "rule_type": "RECORD_CHECK",
      "executability": "Fully Executable",
      "sensitivity": "Error",
      "description": "DTHFL in DM must use values from the NY codelist (Y or null).",
      "authority": "CDISC",
      "standards": [
        "sdtmig"
      ],
      "classes": [
        "Special-Purpose"
      ],
      "domains": [
        "DM"
      ],
      "datasets": [],
      "operations": [
        {
          "operator": "codelist_check",
          "params": {
            "column": "DTHFL",
            "codelist": "NY"
          }
        }
      ],
      "conditions": {
        "all": [
          {
            "name": "DTHFL",
            "operator": "is_not_null",
            "value": null
          },
          {
            "name": "_pb_DTHFL_valid",
            "operator": "equal_to",
            "value": false
          }
        ]
      },
      "actions": {
        "id": "generate_record_error",
        "params": {
          "message": "DTHFL value must be 'Y' or null (NY codelist)."
        }
      }
    },
    {
      "core_id": "SDTM-015",
      "rule_type": "RECORD_CHECK",
      "executability": "Fully Executable",
      "sensitivity": "Error",
      "description": "SUBJID must not be null in DM.",
      "authority": "CDISC",
      "standards": [
        "sdtmig"
      ],
      "classes": [
        "Special-Purpose"
      ],
      "domains": [
        "DM"
      ],
      "datasets": [],
      "operations": [],
      "conditions": {
        "all": [
          {
            "name": "SUBJID",
            "operator": "is_null",
            "value": null
          }
        ]
      },
      "actions": {
        "id": "generate_record_error",
        "params": {
          "message": "SUBJID must not be null in DM."
        }
      }
    },
    {
      "core_id": "SDTM-016",
      "rule_type": "RECORD_CHECK",
      "executability": "Fully Executable",
      "sensitivity": "Error",
      "description": "AETERM must not be null in AE.",
      "authority": "CDISC",
      "standards": [
        "sdtmig"
      ],
      "classes": [
        "Events"
      ],
      "domains": [
        "AE"
      ],
      "datasets": [],
      "operations": [],
      "conditions": {
        "all": [
          {
            "name": "AETERM",
            "operator": "is_null",
            "value": null
          }
        ]
      },
      "actions": {
        "id": "generate_record_error",
        "params": {
          "message": "AETERM (Reported Term for the Adverse Event) must not be null in AE."
        }
      }
    },
    {
      "core_id": "SDTM-017",
      "rule_type": "RECORD_CHECK",
      "executability": "Fully Executable",
      "sensitivity": "Error",
      "description": "AEDECOD must not be null in AE.",
      "authority": "CDISC",
      "standards": [
        "sdtmig"
      ],
      "classes": [
        "Events"
      ],
      "domains": [
        "AE"
      ],
      "datasets": [],
      "operations": [],
      "conditions": {
        "all": [
          {
            "name": "AEDECOD",
            "operator": "is_null",
            "value": null
          }
        ]
      },
      "actions": {
        "id": "generate_record_error",
        "params": {
          "message": "AEDECOD (Dictionary-Derived Term) must not be null in AE."
        }
      }
    },
    {
      "core_id": "SDTM-018",
      "rule_type": "RECORD_CHECK",
      "executability": "Fully Executable",
      "sensitivity": "Error",
      "description": "AESTDTC in AE must be in ISO 8601 extended datetime format when present.",
      "authority": "CDISC",
      "standards": [
        "sdtmig"
      ],
      "classes": [
        "Events"
      ],
      "domains": [
        "AE"
      ],
      "datasets": [],
      "operations": [
        {
          "operator": "iso8601_check",
          "params": {
            "column": "AESTDTC"
          }
        }
      ],
      "conditions": {
        "all": [
          {
            "name": "AESTDTC",
            "operator": "is_not_null",
            "value": null
          },
          {
            "name": "_pb_AESTDTC_iso8601",
            "operator": "equal_to",
            "value": false
          }
        ]
      },
      "actions": {
        "id": "generate_record_error",
        "params": {
          "message": "AESTDTC does not conform to ISO 8601 extended datetime format."
        }
      }
    },
    {
      "core_id": "SDTM-019",
      "rule_type": "RECORD_CHECK",
      "executability": "Fully Executable",
      "sensitivity": "Error",
      "description": "AEENDTC in AE must be in ISO 8601 extended datetime format when present.",
      "authority": "CDISC",
      "standards": [
        "sdtmig"
      ],
      "classes": [
        "Events"
      ],
      "domains": [
        "AE"
      ],
      "datasets": [],
      "operations": [
        {
          "operator": "iso8601_check",
          "params": {
            "column": "AEENDTC"
          }
        }
      ],
      "conditions": {
        "all": [
          {
            "name": "AEENDTC",
            "operator": "is_not_null",
            "value": null
          },
          {
            "name": "_pb_AEENDTC_iso8601",
            "operator": "equal_to",
            "value": false
          }
        ]
      },
      "actions": {
        "id": "generate_record_error",
        "params": {
          "message": "AEENDTC does not conform to ISO 8601 extended datetime format."
        }
      }
    },
    {
      "core_id": "SDTM-020",
      "rule_type": "RECORD_CHECK",
      "executability": "Fully Executable",
      "sensitivity": "Error",
      "description": "AESER in AE must use values from the NY codelist when present.",
      "authority": "CDISC",
      "standards": [
        "sdtmig"
      ],
      "classes": [
        "Events"
      ],
      "domains": [
        "AE"
      ],
      "datasets": [],
      "operations": [
        {
          "operator": "codelist_check",
          "params": {
            "column": "AESER",
            "codelist": "NY"
          }
        }
      ],
      "conditions": {
        "all": [
          {
            "name": "AESER",
            "operator": "is_not_null",
            "value": null
          },
          {
            "name": "_pb_AESER_valid",
            "operator": "equal_to",
            "value": false
          }
        ]
      },
      "actions": {
        "id": "generate_record_error",
        "params": {
          "message": "AESER value must be in the NY codelist (Y/N)."
        }
      }
    },
    {
      "core_id": "SDTM-021",
      "rule_type": "RECORD_CHECK",
      "executability": "Fully Executable",
      "sensitivity": "Error",
      "description": "AEOUT in AE must use values from the AEOUT codelist when present.",
      "authority": "CDISC",
      "standards": [
        "sdtmig"
      ],
      "classes": [
        "Events"
      ],
      "domains": [
        "AE"
      ],
      "datasets": [],
      "operations": [
        {
          "operator": "codelist_check",
          "params": {
            "column": "AEOUT",
            "codelist": "AEOUT"
          }
        }
      ],
      "conditions": {
        "all": [
          {
            "name": "AEOUT",
            "operator": "is_not_null",
            "value": null
          },
          {
            "name": "_pb_AEOUT_valid",
            "operator": "equal_to",
            "value": false
          }
        ]
      },
      "actions": {
        "id": "generate_record_error",
        "params": {
          "message": "AEOUT value is not in the AEOUT codelist."
        }
      }
    },
    {
      "core_id": "SDTM-022",
      "rule_type": "RECORD_CHECK",
      "executability": "Fully Executable",
      "sensitivity": "Error",
      "description": "LBDTC in LB must be in ISO 8601 extended datetime format when present.",
      "authority": "CDISC",
      "standards": [
        "sdtmig"
      ],
      "classes": [
        "Findings"
      ],
      "domains": [
        "LB"
      ],
      "datasets": [],
      "operations": [
        {
          "operator": "iso8601_check",
          "params": {
            "column": "LBDTC"
          }
        }
      ],
      "conditions": {
        "all": [
          {
            "name": "LBDTC",
            "operator": "is_not_null",
            "value": null
          },
          {
            "name": "_pb_LBDTC_iso8601",
            "operator": "equal_to",
            "value": false
          }
        ]
      },
      "actions": {
        "id": "generate_record_error",
        "params": {
          "message": "LBDTC does not conform to ISO 8601 extended datetime format."
        }
      }
    },
    {
      "core_id": "SDTM-023",
      "rule_type": "RECORD_CHECK",
      "executability": "Fully Executable",
      "sensitivity": "Error",
      "description": "LBTEST must not be null in LB.",
      "authority": "CDISC",
      "standards": [
        "sdtmig"
      ],
      "classes": [
        "Findings"
      ],
      "domains": [
        "LB"
      ],
      "datasets": [],
      "operations": [],
      "conditions": {
        "all": [
          {
            "name": "LBTEST",
            "operator": "is_null",
            "value": null
          }
        ]
      },
      "actions": {
        "id": "generate_record_error",
        "params": {
          "message": "LBTEST (Lab Test Name) must not be null in LB."
        }
      }
    },
    {
      "core_id": "SDTM-024",
      "rule_type": "RECORD_CHECK",
      "executability": "Fully Executable",
      "sensitivity": "Error",
      "description": "LBTESTCD must not be null in LB.",
      "authority": "CDISC",
      "standards": [
        "sdtmig"
      ],
      "classes": [
        "Findings"
      ],
      "domains": [
        "LB"
      ],
      "datasets": [],
      "operations": [],
      "conditions": {
        "all": [
          {
            "name": "LBTESTCD",
            "operator": "is_null",
            "value": null
          }
        ]
      },
      "actions": {
        "id": "generate_record_error",
        "params": {
          "message": "LBTESTCD (Lab Test Short Name) must not be null in LB."
        }
      }
    },
    {
      "core_id": "SDTM-025",
      "rule_type": "RECORD_CHECK",
      "executability": "Fully Executable",
      "sensitivity": "Error",
      "description": "VSTEST must not be null in VS.",
      "authority": "CDISC",
      "standards": [
        "sdtmig"
      ],
      "classes": [
        "Findings"
      ],
      "domains": [
        "VS"
      ],
      "datasets": [],
      "operations": [],
      "conditions": {
        "all": [
          {
            "name": "VSTEST",
            "operator": "is_null",
            "value": null
          }
        ]
      },
      "actions": {
        "id": "generate_record_error",
        "params": {
          "message": "VSTEST (Vital Signs Test Name) must not be null in VS."
        }
      }
    },
    {
      "core_id": "SDTM-026",
      "rule_type": "RECORD_CHECK",
      "executability": "Fully Executable",
      "sensitivity": "Error",
      "description": "VSDTC in VS must be in ISO 8601 extended datetime format when present.",
      "authority": "CDISC",
      "standards": [
        "sdtmig"
      ],
      "classes": [
        "Findings"
      ],
      "domains": [
        "VS"
      ],
      "datasets": [],
      "operations": [
        {
          "operator": "iso8601_check",
          "params": {
            "column": "VSDTC"
          }
        }
      ],
      "conditions": {
        "all": [
          {
            "name": "VSDTC",
            "operator": "is_not_null",
            "value": null
          },
          {
            "name": "_pb_VSDTC_iso8601",
            "operator": "equal_to",
            "value": false
          }
        ]
      },
      "actions": {
        "id": "generate_record_error",
        "params": {
          "message": "VSDTC does not conform to ISO 8601 extended datetime format."
        }
      }
    },
    {
      "core_id": "SDTM-027",
      "rule_type": "DATASET_METADATA_CHECK",
      "executability": "Fully Executable",
      "sensitivity": "Warning",
      "description": "USUBJID must be present in every subject-level SDTM domain.",
      "authority": "CDISC",
      "standards": [
        "sdtmig"
      ],
      "classes": [
        "All"
      ],
      "domains": [
        "DM",
        "AE",
        "CM",
        "DS",
        "EX",
        "LB",
        "MH",
        "PE",
        "VS",
        "EG",
        "IE",
        "SV",
        "SUPPDM",
        "SUPPAE",
        "SUPPLB",
        "SUPPVS",
        "SUPPEG",
        "SUPPCM",
        "SUPPDS",
        "SUPPMH"
      ],
      "datasets": [],
      "operations": [
        {
          "operator": "column_presence",
          "params": {
            "column": "USUBJID"
          }
        }
      ],
      "conditions": {
        "all": [
          {
            "name": "_pb_USUBJID_present",
            "operator": "equal_to",
            "value": false
          }
        ]
      },
      "actions": {
        "id": "generate_dataset_error",
        "params": {
          "message": "USUBJID column is required in all SDTM domains."
        }
      }
    },
    {
      "core_id": "SDTM-028",
      "rule_type": "DATASET_METADATA_CHECK",
      "executability": "Fully Executable",
      "sensitivity": "Error",
      "description": "STUDYID must be present in every SDTM domain.",
      "authority": "CDISC",
      "standards": [
        "sdtmig"
      ],
      "classes": [
        "All"
      ],
      "domains": [],
      "datasets": [],
      "operations": [
        {
          "operator": "column_presence",
          "params": {
            "column": "STUDYID"
          }
        }
      ],
      "conditions": {
        "all": [
          {
            "name": "_pb_STUDYID_present",
            "operator": "equal_to",
            "value": false
          }
        ]
      },
      "actions": {
        "id": "generate_dataset_error",
        "params": {
          "message": "STUDYID column is required in all SDTM domains."
        }
      }
    },
    {
      "core_id": "SDTM-029",
      "rule_type": "DATASET_METADATA_CHECK",
      "executability": "Fully Executable",
      "sensitivity": "Error",
      "description": "DOMAIN must be present in every SDTM domain.",
      "authority": "CDISC",
      "standards": [
        "sdtmig"
      ],
      "classes": [
        "All"
      ],
      "domains": [],
      "datasets": [],
      "operations": [
        {
          "operator": "column_presence",
          "params": {
            "column": "DOMAIN"
          }
        }
      ],
      "conditions": {
        "all": [
          {
            "name": "_pb_DOMAIN_present",
            "operator": "equal_to",
            "value": false
          }
        ]
      },
      "actions": {
        "id": "generate_dataset_error",
        "params": {
          "message": "DOMAIN column is required in all SDTM domains."
        }
      }
    },
    {
      "core_id": "SDTM-030",
      "rule_type": "RECORD_CHECK",
      "executability": "Fully Executable",
      "sensitivity": "Error",
      "description": "ETHNIC in DM must use values from the ETHNIC codelist when present.",
      "authority": "CDISC",
      "standards": [
        "sdtmig"
      ],
      "classes": [
        "Special-Purpose"
      ],
      "domains": [
        "DM"
      ],
      "datasets": [],
      "operations": [
        {
          "operator": "codelist_check",
          "params": {
            "column": "ETHNIC",
            "codelist": "ETHNIC"
          }
        }
      ],
      "conditions": {
        "all": [
          {
            "name": "ETHNIC",
            "operator": "is_not_null",
            "value": null
          },
          {
            "name": "_pb_ETHNIC_valid",
            "operator": "equal_to",
            "value": false
          }
        ]
      },
      "actions": {
        "id": "generate_record_error",
        "params": {
          "message": "ETHNIC value is not in the ETHNIC codelist."
        }
      }
    },
    {
      "core_id": "SDTM-031",
      "rule_type": "VARIABLE_METADATA_CHECK",
      "executability": "Fully Executable",
      "sensitivity": "Error",
      "description": "DM domain must contain all required Identifier and Topic variables.",
      "authority": "CDISC",
      "standards": [
        "sdtmig"
      ],
      "classes": [
        "Special Purpose"
      ],
      "domains": [
        "DM"
      ],
      "datasets": [],
      "operations": [
        {
          "operator": "has_required_variables",
          "params": {
            "variables": [
              "STUDYID",
              "DOMAIN",
              "USUBJID",
              "SUBJID"
            ]
          }
        }
      ],
      "conditions": {
        "any": [
          {
            "name": "_pb_STUDYID_present",
            "operator": "equal_to",
            "value": false
          },
          {
            "name": "_pb_DOMAIN_present",
            "operator": "equal_to",
            "value": false
          },
          {
            "name": "_pb_USUBJID_present",
            "operator": "equal_to",
            "value": false
          },
          {
            "name": "_pb_SUBJID_present",
            "operator": "equal_to",
            "value": false
          }
        ]
      },
      "actions": {
        "id": "generate_variable_error",
        "params": {
          "message": "DM domain is missing one or more required Identifier variables (STUDYID, DOMAIN, USUBJID, SUBJID)."
        }
      }
    },
    {
      "core_id": "SDTM-032",
      "rule_type": "VARIABLE_METADATA_CHECK",
      "executability": "Fully Executable",
      "sensitivity": "Error",
      "description": "DM domain must contain required demographic variables (SEX, RACE, ETHNIC, COUNTRY).",
      "authority": "CDISC",
      "standards": [
        "sdtmig"
      ],
      "classes": [
        "Special Purpose"
      ],
      "domains": [
        "DM"
      ],
      "datasets": [],
      "operations": [
        {
          "operator": "has_required_variables",
          "params": {
            "variables": [
              "SEX",
              "RACE",
              "ETHNIC",
              "COUNTRY"
            ]
          }
        }
      ],
      "conditions": {
        "any": [
          {
            "name": "_pb_SEX_present",
            "operator": "equal_to",
            "value": false
          },
          {
            "name": "_pb_RACE_present",
            "operator": "equal_to",
            "value": false
          },
          {
            "name": "_pb_ETHNIC_present",
            "operator": "equal_to",
            "value": false
          },
          {
            "name": "_pb_COUNTRY_present",
            "operator": "equal_to",
            "value": false
          }
        ]
      },
      "actions": {
        "id": "generate_variable_error",
        "params": {
          "message": "DM domain is missing one or more required demographic variables (SEX, RACE, ETHNIC, COUNTRY)."
        }
      }
    },
    {
      "core_id": "SDTM-033",
      "rule_type": "VARIABLE_METADATA_CHECK",
      "executability": "Fully Executable",
      "sensitivity": "Error",
      "description": "DM domain must contain RFSTDTC and RFENDTC (reference start/end dates).",
      "authority": "CDISC",
      "standards": [
        "sdtmig"
      ],
      "classes": [
        "Special Purpose"
      ],
      "domains": [
        "DM"
      ],
      "datasets": [],
      "operations": [
        {
          "operator": "has_required_variables",
          "params": {
            "variables": [
              "RFSTDTC",
              "RFENDTC"
            ]
          }
        }
      ],
      "conditions": {
        "any": [
          {
            "name": "_pb_RFSTDTC_present",
            "operator": "equal_to",
            "value": false
          },
          {
            "name": "_pb_RFENDTC_present",
            "operator": "equal_to",
            "value": false
          }
        ]
      },
      "actions": {
        "id": "generate_variable_error",
        "params": {
          "message": "DM domain must include RFSTDTC (Subject Reference Start Date/Time) and RFENDTC (Subject Reference End Date/Time)."
        }
      }
    },
    {
      "core_id": "SDTM-034",
      "rule_type": "VARIABLE_METADATA_CHECK",
      "executability": "Fully Executable",
      "sensitivity": "Error",
      "description": "DM domain must contain SITEID, AGE, and AGEU.",
      "authority": "CDISC",
      "standards": [
        "sdtmig"
      ],
      "classes": [
        "Special Purpose"
      ],
      "domains": [
        "DM"
      ],
      "datasets": [],
      "operations": [
        {
          "operator": "has_required_variables",
          "params": {
            "variables": [
              "SITEID",
              "AGE",
              "AGEU"
            ]
          }
        }
      ],
      "conditions": {
        "any": [
          {
            "name": "_pb_SITEID_present",
            "operator": "equal_to",
            "value": false
          },
          {
            "name": "_pb_AGE_present",
            "operator": "equal_to",
            "value": false
          },
          {
            "name": "_pb_AGEU_present",
            "operator": "equal_to",
            "value": false
          }
        ]
      },
      "actions": {
        "id": "generate_variable_error",
        "params": {
          "message": "DM domain must include SITEID, AGE, and AGEU."
        }
      }
    },
    {
      "core_id": "SDTM-035",
      "rule_type": "VARIABLE_METADATA_CHECK",
      "executability": "Fully Executable",
      "sensitivity": "Error",
      "description": "DM domain must contain treatment arm variables (ARMCD, ARM, ACTARMCD, ACTARM).",
      "authority": "CDISC",
      "standards": [
        "sdtmig"
      ],
      "classes": [
        "Special Purpose"
      ],
      "domains": [
        "DM"
      ],
      "datasets": [],
      "operations": [
        {
          "operator": "has_required_variables",
          "params": {
            "variables": [
              "ARMCD",
              "ARM",
              "ACTARMCD",
              "ACTARM"
            ]
          }
        }
      ],
      "conditions": {
        "any": [
          {
            "name": "_pb_ARMCD_present",
            "operator": "equal_to",
            "value": false
          },
          {
            "name": "_pb_ARM_present",
            "operator": "equal_to",
            "value": false
          },
          {
            "name": "_pb_ACTARMCD_present",
            "operator": "equal_to",
            "value": false
          },
          {
            "name": "_pb_ACTARM_present",
            "operator": "equal_to",
            "value": false
          }
        ]
      },
      "actions": {
        "id": "generate_variable_error",
        "params": {
          "message": "DM domain must include treatment arm variables: ARMCD, ARM, ACTARMCD, ACTARM."
        }
      }
    },
    {
      "core_id": "SDTM-036",
      "rule_type": "VARIABLE_METADATA_CHECK",
      "executability": "Fully Executable",
      "sensitivity": "Error",
      "description": "AE domain must contain required Identifier and sequence variables.",
      "authority": "CDISC",
      "standards": [
        "sdtmig"
      ],
      "classes": [
        "Events"
      ],
      "domains": [
        "AE"
      ],
      "datasets": [],
      "operations": [
        {
          "operator": "has_required_variables",
          "params": {
            "variables": [
              "STUDYID",
              "DOMAIN",
              "USUBJID",
              "AESEQ"
            ]
          }
        }
      ],
      "conditions": {
        "any": [
          {
            "name": "_pb_STUDYID_present",
            "operator": "equal_to",
            "value": false
          },
          {
            "name": "_pb_DOMAIN_present",
            "operator": "equal_to",
            "value": false
          },
          {
            "name": "_pb_USUBJID_present",
            "operator": "equal_to",
            "value": false
          },
          {
            "name": "_pb_AESEQ_present",
            "operator": "equal_to",
            "value": false
          }
        ]
      },
      "actions": {
        "id": "generate_variable_error",
        "params": {
          "message": "AE domain is missing required variables (STUDYID, DOMAIN, USUBJID, AESEQ)."
        }
      }
    },
    {
      "core_id": "SDTM-037",
      "rule_type": "VARIABLE_METADATA_CHECK",
      "executability": "Fully Executable",
      "sensitivity": "Error",
      "description": "AE domain must contain the AE term and dictionary-derived variables.",
      "authority": "CDISC",
      "standards": [
        "sdtmig"
      ],
      "classes": [
        "Events"
      ],
      "domains": [
        "AE"
      ],
      "datasets": [],
      "operations": [
        {
          "operator": "has_required_variables",
          "params": {
            "variables": [
              "AETERM",
              "AEDECOD",
              "AEBODSYS"
            ]
          }
        }
      ],
      "conditions": {
        "any": [
          {
            "name": "_pb_AETERM_present",
            "operator": "equal_to",
            "value": false
          },
          {
            "name": "_pb_AEDECOD_present",
            "operator": "equal_to",
            "value": false
          },
          {
            "name": "_pb_AEBODSYS_present",
            "operator": "equal_to",
            "value": false
          }
        ]
      },
      "actions": {
        "id": "generate_variable_error",
        "params": {
          "message": "AE domain must include AETERM, AEDECOD (MedDRA preferred term), and AEBODSYS (body system)."
        }
      }
    },
    {
      "core_id": "SDTM-038",
      "rule_type": "VARIABLE_METADATA_CHECK",
      "executability": "Fully Executable",
      "sensitivity": "Error",
      "description": "AE domain must contain severity, seriousness, and outcome variables.",
      "authority": "CDISC",
      "standards": [
        "sdtmig"
      ],
      "classes": [
        "Events"
      ],
      "domains": [
        "AE"
      ],
      "datasets": [],
      "operations": [
        {
          "operator": "has_required_variables",
          "params": {
            "variables": [
              "AESEV",
              "AESER",
              "AEOUT"
            ]
          }
        }
      ],
      "conditions": {
        "any": [
          {
            "name": "_pb_AESEV_present",
            "operator": "equal_to",
            "value": false
          },
          {
            "name": "_pb_AESER_present",
            "operator": "equal_to",
            "value": false
          },
          {
            "name": "_pb_AEOUT_present",
            "operator": "equal_to",
            "value": false
          }
        ]
      },
      "actions": {
        "id": "generate_variable_error",
        "params": {
          "message": "AE domain must include AESEV (severity), AESER (serious flag), and AEOUT (outcome)."
        }
      }
    },
    {
      "core_id": "SDTM-039",
      "rule_type": "VARIABLE_METADATA_CHECK",
      "executability": "Fully Executable",
      "sensitivity": "Error",
      "description": "VS domain must contain required Identifier and test variables.",
      "authority": "CDISC",
      "standards": [
        "sdtmig"
      ],
      "classes": [
        "Findings"
      ],
      "domains": [
        "VS"
      ],
      "datasets": [],
      "operations": [
        {
          "operator": "has_required_variables",
          "params": {
            "variables": [
              "STUDYID",
              "DOMAIN",
              "USUBJID",
              "VSSEQ",
              "VSTESTCD",
              "VSTEST"
            ]
          }
        }
      ],
      "conditions": {
        "any": [
          {
            "name": "_pb_STUDYID_present",
            "operator": "equal_to",
            "value": false
          },
          {
            "name": "_pb_DOMAIN_present",
            "operator": "equal_to",
            "value": false
          },
          {
            "name": "_pb_USUBJID_present",
            "operator": "equal_to",
            "value": false
          },
          {
            "name": "_pb_VSSEQ_present",
            "operator": "equal_to",
            "value": false
          },
          {
            "name": "_pb_VSTESTCD_present",
            "operator": "equal_to",
            "value": false
          },
          {
            "name": "_pb_VSTEST_present",
            "operator": "equal_to",
            "value": false
          }
        ]
      },
      "actions": {
        "id": "generate_variable_error",
        "params": {
          "message": "VS domain is missing required variables (STUDYID, DOMAIN, USUBJID, VSSEQ, VSTESTCD, VSTEST)."
        }
      }
    },
    {
      "core_id": "SDTM-040",
      "rule_type": "VARIABLE_METADATA_CHECK",
      "executability": "Fully Executable",
      "sensitivity": "Error",
      "description": "VS domain must contain result variables (VSORRES, VSORRESU, VSSTRESC, VSSTRESN, VSSTRESU).",
      "authority": "CDISC",
      "standards": [
        "sdtmig"
      ],
      "classes": [
        "Findings"
      ],
      "domains": [
        "VS"
      ],
      "datasets": [],
      "operations": [
        {
          "operator": "has_required_variables",
          "params": {
            "variables": [
              "VSORRES",
              "VSORRESU",
              "VSSTRESC",
              "VSSTRESN",
              "VSSTRESU"
            ]
          }
        }
      ],
      "conditions": {
        "any": [
          {
            "name": "_pb_VSORRES_present",
            "operator": "equal_to",
            "value": false
          },
          {
            "name": "_pb_VSORRESU_present",
            "operator": "equal_to",
            "value": false
          },
          {
            "name": "_pb_VSSTRESC_present",
            "operator": "equal_to",
            "value": false
          },
          {
            "name": "_pb_VSSTRESN_present",
            "operator": "equal_to",
            "value": false
          },
          {
            "name": "_pb_VSSTRESU_present",
            "operator": "equal_to",
            "value": false
          }
        ]
      },
      "actions": {
        "id": "generate_variable_error",
        "params": {
          "message": "VS domain must include original result (VSORRES/VSORRESU) and standardized result (VSSTRESC/VSSTRESN/VSSTRESU) variables."
        }
      }
    },
    {
      "core_id": "SDTM-041",
      "rule_type": "VARIABLE_METADATA_CHECK",
      "executability": "Fully Executable",
      "sensitivity": "Error",
      "description": "LB domain must contain required Identifier and test variables.",
      "authority": "CDISC",
      "standards": [
        "sdtmig"
      ],
      "classes": [
        "Findings"
      ],
      "domains": [
        "LB"
      ],
      "datasets": [],
      "operations": [
        {
          "operator": "has_required_variables",
          "params": {
            "variables": [
              "STUDYID",
              "DOMAIN",
              "USUBJID",
              "LBSEQ",
              "LBTESTCD",
              "LBTEST"
            ]
          }
        }
      ],
      "conditions": {
        "any": [
          {
            "name": "_pb_STUDYID_present",
            "operator": "equal_to",
            "value": false
          },
          {
            "name": "_pb_DOMAIN_present",
            "operator": "equal_to",
            "value": false
          },
          {
            "name": "_pb_USUBJID_present",
            "operator": "equal_to",
            "value": false
          },
          {
            "name": "_pb_LBSEQ_present",
            "operator": "equal_to",
            "value": false
          },
          {
            "name": "_pb_LBTESTCD_present",
            "operator": "equal_to",
            "value": false
          },
          {
            "name": "_pb_LBTEST_present",
            "operator": "equal_to",
            "value": false
          }
        ]
      },
      "actions": {
        "id": "generate_variable_error",
        "params": {
          "message": "LB domain is missing required variables (STUDYID, DOMAIN, USUBJID, LBSEQ, LBTESTCD, LBTEST)."
        }
      }
    },
    {
      "core_id": "SDTM-042",
      "rule_type": "VARIABLE_METADATA_CHECK",
      "executability": "Fully Executable",
      "sensitivity": "Error",
      "description": "LB domain must contain result variables (LBORRES, LBORRESU, LBSTRESC, LBSTRESN, LBSTRESU).",
      "authority": "CDISC",
      "standards": [
        "sdtmig"
      ],
      "classes": [
        "Findings"
      ],
      "domains": [
        "LB"
      ],
      "datasets": [],
      "operations": [
        {
          "operator": "has_required_variables",
          "params": {
            "variables": [
              "LBORRES",
              "LBORRESU",
              "LBSTRESC",
              "LBSTRESN",
              "LBSTRESU"
            ]
          }
        }
      ],
      "conditions": {
        "any": [
          {
            "name": "_pb_LBORRES_present",
            "operator": "equal_to",
            "value": false
          },
          {
            "name": "_pb_LBORRESU_present",
            "operator": "equal_to",
            "value": false
          },
          {
            "name": "_pb_LBSTRESC_present",
            "operator": "equal_to",
            "value": false
          },
          {
            "name": "_pb_LBSTRESN_present",
            "operator": "equal_to",
            "value": false
          },
          {
            "name": "_pb_LBSTRESU_present",
            "operator": "equal_to",
            "value": false
          }
        ]
      },
      "actions": {
        "id": "generate_variable_error",
        "params": {
          "message": "LB domain must include result variables (LBORRES/LBORRESU and LBSTRESC/LBSTRESN/LBSTRESU)."
        }
      }
    },
    {
      "core_id": "SDTM-043",
      "rule_type": "VARIABLE_METADATA_CHECK",
      "executability": "Fully Executable",
      "sensitivity": "Error",
      "description": "EG domain must contain required Identifier and test variables.",
      "authority": "CDISC",
      "standards": [
        "sdtmig"
      ],
      "classes": [
        "Findings"
      ],
      "domains": [
        "EG"
      ],
      "datasets": [],
      "operations": [
        {
          "operator": "has_required_variables",
          "params": {
            "variables": [
              "STUDYID",
              "DOMAIN",
              "USUBJID",
              "EGSEQ",
              "EGTESTCD",
              "EGTEST"
            ]
          }
        }
      ],
      "conditions": {
        "any": [
          {
            "name": "_pb_STUDYID_present",
            "operator": "equal_to",
            "value": false
          },
          {
            "name": "_pb_DOMAIN_present",
            "operator": "equal_to",
            "value": false
          },
          {
            "name": "_pb_USUBJID_present",
            "operator": "equal_to",
            "value": false
          },
          {
            "name": "_pb_EGSEQ_present",
            "operator": "equal_to",
            "value": false
          },
          {
            "name": "_pb_EGTESTCD_present",
            "operator": "equal_to",
            "value": false
          },
          {
            "name": "_pb_EGTEST_present",
            "operator": "equal_to",
            "value": false
          }
        ]
      },
      "actions": {
        "id": "generate_variable_error",
        "params": {
          "message": "EG domain is missing required variables (STUDYID, DOMAIN, USUBJID, EGSEQ, EGTESTCD, EGTEST)."
        }
      }
    },
    {
      "core_id": "SDTM-044",
      "rule_type": "VARIABLE_METADATA_CHECK",
      "executability": "Fully Executable",
      "sensitivity": "Warning",
      "description": "In any domain, STUDYID must appear before DOMAIN, which must appear before USUBJID.",
      "authority": "CDISC",
      "standards": [
        "sdtmig"
      ],
      "classes": [
        "All"
      ],
      "domains": [],
      "datasets": [],
      "operations": [
        {
          "operator": "valid_variable_order",
          "params": {
            "expected_order": [
              "STUDYID",
              "DOMAIN",
              "USUBJID"
            ]
          }
        }
      ],
      "conditions": {
        "all": [
          {
            "name": "_pb_variable_order_valid",
            "operator": "equal_to",
            "value": false
          }
        ]
      },
      "actions": {
        "id": "generate_variable_error",
        "params": {
          "message": "Identifier variables must appear in order: STUDYID, DOMAIN, USUBJID."
        }
      }
    },
    {
      "core_id": "SDTM-045",
      "rule_type": "VARIABLE_METADATA_CHECK",
      "executability": "Fully Executable",
      "sensitivity": "Warning",
      "description": "In findings domains (VS, LB, EG), the sequence variable (xSEQ) must appear after USUBJID.",
      "authority": "CDISC",
      "standards": [
        "sdtmig"
      ],
      "classes": [
        "Findings"
      ],
      "domains": [
        "VS"
      ],
      "datasets": [],
      "operations": [
        {
          "operator": "valid_variable_order",
          "params": {
            "expected_order": [
              "STUDYID",
              "DOMAIN",
              "USUBJID",
              "VSSEQ"
            ]
          }
        }
      ],
      "conditions": {
        "all": [
          {
            "name": "_pb_variable_order_valid",
            "operator": "equal_to",
            "value": false
          }
        ]
      },
      "actions": {
        "id": "generate_variable_error",
        "params": {
          "message": "VS: VSSEQ must appear after USUBJID in the column order."
        }
      }
    },
    {
      "core_id": "SDTM-046",
      "rule_type": "VARIABLE_METADATA_CHECK",
      "executability": "Fully Executable",
      "sensitivity": "Error",
      "description": "In DM, AGE must be a numeric variable.",
      "authority": "CDISC",
      "standards": [
        "sdtmig"
      ],
      "classes": [
        "Special Purpose"
      ],
      "domains": [
        "DM"
      ],
      "datasets": [],
      "operations": [
        {
          "operator": "variable_type_check",
          "params": {
            "column": "AGE",
            "expected_type": "numeric"
          }
        }
      ],
      "conditions": {
        "all": [
          {
            "name": "_pb_AGE_type_valid",
            "operator": "equal_to",
            "value": false
          }
        ]
      },
      "actions": {
        "id": "generate_variable_error",
        "params": {
          "message": "DM.AGE must be a numeric variable."
        }
      }
    },
    {
      "core_id": "SDTM-047",
      "rule_type": "VARIABLE_METADATA_CHECK",
      "executability": "Fully Executable",
      "sensitivity": "Error",
      "description": "In VS, VSSTRESN must be a numeric variable.",
      "authority": "CDISC",
      "standards": [
        "sdtmig"
      ],
      "classes": [
        "Findings"
      ],
      "domains": [
        "VS"
      ],
      "datasets": [],
      "operations": [
        {
          "operator": "variable_type_check",
          "params": {
            "column": "VSSTRESN",
            "expected_type": "numeric"
          }
        }
      ],
      "conditions": {
        "all": [
          {
            "name": "_pb_VSSTRESN_type_valid",
            "operator": "equal_to",
            "value": false
          }
        ]
      },
      "actions": {
        "id": "generate_variable_error",
        "params": {
          "message": "VS.VSSTRESN must be a numeric variable."
        }
      }
    },
    {
      "core_id": "SDTM-048",
      "rule_type": "VARIABLE_METADATA_CHECK",
      "executability": "Fully Executable",
      "sensitivity": "Error",
      "description": "In LB, LBSTRESN must be a numeric variable.",
      "authority": "CDISC",
      "standards": [
        "sdtmig"
      ],
      "classes": [
        "Findings"
      ],
      "domains": [
        "LB"
      ],
      "datasets": [],
      "operations": [
        {
          "operator": "variable_type_check",
          "params": {
            "column": "LBSTRESN",
            "expected_type": "numeric"
          }
        }
      ],
      "conditions": {
        "all": [
          {
            "name": "_pb_LBSTRESN_type_valid",
            "operator": "equal_to",
            "value": false
          }
        ]
      },
      "actions": {
        "id": "generate_variable_error",
        "params": {
          "message": "LB.LBSTRESN must be a numeric variable."
        }
      }
    },
    {
      "core_id": "SDTM-049",
      "rule_type": "VARIABLE_METADATA_CHECK",
      "executability": "Partially Executable",
      "sensitivity": "Error",
      "description": "Variable labels in the submission must match the labels specified in Define-XML.",
      "authority": "CDISC",
      "standards": [
        "sdtmig"
      ],
      "classes": [
        "All"
      ],
      "domains": [],
      "datasets": [
        "DEFINE"
      ],
      "operations": [],
      "conditions": {},
      "actions": {
        "id": "generate_variable_error",
        "params": {
          "message": "Variable label does not match Define-XML specification."
        }
      }
    },
    {
      "core_id": "SDTM-050",
      "rule_type": "VARIABLE_METADATA_CHECK",
      "executability": "Partially Executable",
      "sensitivity": "Error",
      "description": "Variable data types in the submission must match the types declared in Define-XML.",
      "authority": "CDISC",
      "standards": [
        "sdtmig"
      ],
      "classes": [
        "All"
      ],
      "domains": [],
      "datasets": [
        "DEFINE"
      ],
      "operations": [],
      "conditions": {},
      "actions": {
        "id": "generate_variable_error",
        "params": {
          "message": "Variable data type does not match Define-XML specification."
        }
      }
    },
    {
      "core_id": "SDTM-051",
      "rule_type": "DEFINE_ITEM_METADATA_CHECK",
      "executability": "Partially Executable",
      "sensitivity": "Error",
      "description": "Each variable in the DM dataset must be declared in Define-XML.",
      "authority": "CDISC",
      "standards": [
        "sdtmig"
      ],
      "classes": [
        "Special Purpose"
      ],
      "domains": [
        "DM"
      ],
      "datasets": [
        "DEFINE"
      ],
      "operations": [
        {
          "operator": "define_var_declared",
          "params": {
            "column": "STUDYID"
          }
        },
        {
          "operator": "define_var_declared",
          "params": {
            "column": "DOMAIN"
          }
        },
        {
          "operator": "define_var_declared",
          "params": {
            "column": "USUBJID"
          }
        },
        {
          "operator": "define_var_declared",
          "params": {
            "column": "SEX"
          }
        },
        {
          "operator": "define_var_declared",
          "params": {
            "column": "AGE"
          }
        }
      ],
      "conditions": {
        "any": [
          {
            "name": "_pb_STUDYID_in_define",
            "operator": "equal_to",
            "value": false
          },
          {
            "name": "_pb_DOMAIN_in_define",
            "operator": "equal_to",
            "value": false
          },
          {
            "name": "_pb_USUBJID_in_define",
            "operator": "equal_to",
            "value": false
          },
          {
            "name": "_pb_SEX_in_define",
            "operator": "equal_to",
            "value": false
          },
          {
            "name": "_pb_AGE_in_define",
            "operator": "equal_to",
            "value": false
          }
        ]
      },
      "actions": {
        "id": "generate_variable_error",
        "params": {
          "message": "One or more DM variables are not declared in Define-XML."
        }
      }
    },
    {
      "core_id": "SDTM-052",
      "rule_type": "DEFINE_ITEM_METADATA_CHECK",
      "executability": "Partially Executable",
      "sensitivity": "Error",
      "description": "Each variable in the AE dataset must be declared in Define-XML.",
      "authority": "CDISC",
      "standards": [
        "sdtmig"
      ],
      "classes": [
        "Events"
      ],
      "domains": [
        "AE"
      ],
      "datasets": [
        "DEFINE"
      ],
      "operations": [
        {
          "operator": "define_var_declared",
          "params": {
            "column": "STUDYID"
          }
        },
        {
          "operator": "define_var_declared",
          "params": {
            "column": "DOMAIN"
          }
        },
        {
          "operator": "define_var_declared",
          "params": {
            "column": "USUBJID"
          }
        },
        {
          "operator": "define_var_declared",
          "params": {
            "column": "AESEQ"
          }
        },
        {
          "operator": "define_var_declared",
          "params": {
            "column": "AETERM"
          }
        }
      ],
      "conditions": {
        "any": [
          {
            "name": "_pb_STUDYID_in_define",
            "operator": "equal_to",
            "value": false
          },
          {
            "name": "_pb_DOMAIN_in_define",
            "operator": "equal_to",
            "value": false
          },
          {
            "name": "_pb_USUBJID_in_define",
            "operator": "equal_to",
            "value": false
          },
          {
            "name": "_pb_AESEQ_in_define",
            "operator": "equal_to",
            "value": false
          },
          {
            "name": "_pb_AETERM_in_define",
            "operator": "equal_to",
            "value": false
          }
        ]
      },
      "actions": {
        "id": "generate_variable_error",
        "params": {
          "message": "One or more AE variables are not declared in Define-XML."
        }
      }
    },
    {
      "core_id": "SDTM-053",
      "rule_type": "DEFINE_ITEM_METADATA_CHECK",
      "executability": "Partially Executable",
      "sensitivity": "Error",
      "description": "Variables declared Mandatory in Define-XML must not contain null values in DM.",
      "authority": "CDISC",
      "standards": [
        "sdtmig"
      ],
      "classes": [
        "Special Purpose"
      ],
      "domains": [
        "DM"
      ],
      "datasets": [
        "DEFINE"
      ],
      "operations": [
        {
          "operator": "define_required_check",
          "params": {
            "column": "STUDYID"
          }
        },
        {
          "operator": "define_required_check",
          "params": {
            "column": "DOMAIN"
          }
        },
        {
          "operator": "define_required_check",
          "params": {
            "column": "USUBJID"
          }
        },
        {
          "operator": "define_required_check",
          "params": {
            "column": "SEX"
          }
        }
      ],
      "conditions": {
        "any": [
          {
            "name": "_pb_STUDYID_mandatory_ok",
            "operator": "equal_to",
            "value": false
          },
          {
            "name": "_pb_DOMAIN_mandatory_ok",
            "operator": "equal_to",
            "value": false
          },
          {
            "name": "_pb_USUBJID_mandatory_ok",
            "operator": "equal_to",
            "value": false
          },
          {
            "name": "_pb_SEX_mandatory_ok",
            "operator": "equal_to",
            "value": false
          }
        ]
      },
      "actions": {
        "id": "generate_record_error",
        "params": {
          "message": "A mandatory variable (Mandatory=Yes in Define-XML) contains a null value."
        }
      }
    },
    {
      "core_id": "SDTM-054",
      "rule_type": "DEFINE_ITEM_METADATA_CHECK",
      "executability": "Partially Executable",
      "sensitivity": "Error",
      "description": "Variables declared Mandatory in Define-XML must not contain null values in AE.",
      "authority": "CDISC",
      "standards": [
        "sdtmig"
      ],
      "classes": [
        "Events"
      ],
      "domains": [
        "AE"
      ],
      "datasets": [
        "DEFINE"
      ],
      "operations": [
        {
          "operator": "define_required_check",
          "params": {
            "column": "STUDYID"
          }
        },
        {
          "operator": "define_required_check",
          "params": {
            "column": "USUBJID"
          }
        },
        {
          "operator": "define_required_check",
          "params": {
            "column": "AESEQ"
          }
        },
        {
          "operator": "define_required_check",
          "params": {
            "column": "AETERM"
          }
        }
      ],
      "conditions": {
        "any": [
          {
            "name": "_pb_STUDYID_mandatory_ok",
            "operator": "equal_to",
            "value": false
          },
          {
            "name": "_pb_USUBJID_mandatory_ok",
            "operator": "equal_to",
            "value": false
          },
          {
            "name": "_pb_AESEQ_mandatory_ok",
            "operator": "equal_to",
            "value": false
          },
          {
            "name": "_pb_AETERM_mandatory_ok",
            "operator": "equal_to",
            "value": false
          }
        ]
      },
      "actions": {
        "id": "generate_record_error",
        "params": {
          "message": "A mandatory AE variable (Mandatory=Yes in Define-XML) contains a null value."
        }
      }
    },
    {
      "core_id": "SDTM-055",
      "rule_type": "DEFINE_ITEM_METADATA_CHECK",
      "executability": "Partially Executable",
      "sensitivity": "Error",
      "description": "Variable data types in DM must match the types declared in Define-XML.",
      "authority": "CDISC",
      "standards": [
        "sdtmig"
      ],
      "classes": [
        "Special Purpose"
      ],
      "domains": [
        "DM"
      ],
      "datasets": [
        "DEFINE"
      ],
      "operations": [
        {
          "operator": "define_type_check",
          "params": {
            "column": "STUDYID"
          }
        },
        {
          "operator": "define_type_check",
          "params": {
            "column": "AGE"
          }
        },
        {
          "operator": "define_type_check",
          "params": {
            "column": "SEX"
          }
        }
      ],
      "conditions": {
        "any": [
          {
            "name": "_pb_STUDYID_define_type_ok",
            "operator": "equal_to",
            "value": false
          },
          {
            "name": "_pb_AGE_define_type_ok",
            "operator": "equal_to",
            "value": false
          },
          {
            "name": "_pb_SEX_define_type_ok",
            "operator": "equal_to",
            "value": false
          }
        ]
      },
      "actions": {
        "id": "generate_variable_error",
        "params": {
          "message": "A variable's data type does not match the type declared in Define-XML."
        }
      }
    },
    {
      "core_id": "SDTM-056",
      "rule_type": "DEFINE_CODELIST_CHECK",
      "executability": "Partially Executable",
      "sensitivity": "Error",
      "description": "SEX values in DM must be from the codelist declared in Define-XML.",
      "authority": "CDISC",
      "standards": [
        "sdtmig"
      ],
      "classes": [
        "Special Purpose"
      ],
      "domains": [
        "DM"
      ],
      "datasets": [
        "DEFINE"
      ],
      "operations": [
        {
          "operator": "define_codelist_check",
          "params": {
            "column": "SEX"
          }
        }
      ],
      "conditions": {
        "all": [
          {
            "name": "_pb_SEX_define_valid",
            "operator": "equal_to",
            "value": false
          }
        ]
      },
      "actions": {
        "id": "generate_record_error",
        "params": {
          "message": "DM.SEX contains a value not in the Define-XML declared codelist."
        }
      }
    },
    {
      "core_id": "SDTM-057",
      "rule_type": "DEFINE_CODELIST_CHECK",
      "executability": "Partially Executable",
      "sensitivity": "Error",
      "description": "RACE values in DM must be from the codelist declared in Define-XML.",
      "authority": "CDISC",
      "standards": [
        "sdtmig"
      ],
      "classes": [
        "Special Purpose"
      ],
      "domains": [
        "DM"
      ],
      "datasets": [
        "DEFINE"
      ],
      "operations": [
        {
          "operator": "define_codelist_check",
          "params": {
            "column": "RACE"
          }
        }
      ],
      "conditions": {
        "all": [
          {
            "name": "_pb_RACE_define_valid",
            "operator": "equal_to",
            "value": false
          }
        ]
      },
      "actions": {
        "id": "generate_record_error",
        "params": {
          "message": "DM.RACE contains a value not in the Define-XML declared codelist."
        }
      }
    },
    {
      "core_id": "SDTM-058",
      "rule_type": "DEFINE_CODELIST_CHECK",
      "executability": "Partially Executable",
      "sensitivity": "Error",
      "description": "ETHNIC values in DM must be from the codelist declared in Define-XML.",
      "authority": "CDISC",
      "standards": [
        "sdtmig"
      ],
      "classes": [
        "Special Purpose"
      ],
      "domains": [
        "DM"
      ],
      "datasets": [
        "DEFINE"
      ],
      "operations": [
        {
          "operator": "define_codelist_check",
          "params": {
            "column": "ETHNIC"
          }
        }
      ],
      "conditions": {
        "all": [
          {
            "name": "_pb_ETHNIC_define_valid",
            "operator": "equal_to",
            "value": false
          }
        ]
      },
      "actions": {
        "id": "generate_record_error",
        "params": {
          "message": "DM.ETHNIC contains a value not in the Define-XML declared codelist."
        }
      }
    },
    {
      "core_id": "SDTM-059",
      "rule_type": "DEFINE_CODELIST_CHECK",
      "executability": "Partially Executable",
      "sensitivity": "Error",
      "description": "AESEV values in AE must be from the codelist declared in Define-XML.",
      "authority": "CDISC",
      "standards": [
        "sdtmig"
      ],
      "classes": [
        "Events"
      ],
      "domains": [
        "AE"
      ],
      "datasets": [
        "DEFINE"
      ],
      "operations": [
        {
          "operator": "define_codelist_check",
          "params": {
            "column": "AESEV"
          }
        }
      ],
      "conditions": {
        "all": [
          {
            "name": "_pb_AESEV_define_valid",
            "operator": "equal_to",
            "value": false
          }
        ]
      },
      "actions": {
        "id": "generate_record_error",
        "params": {
          "message": "AE.AESEV contains a value not in the Define-XML declared codelist."
        }
      }
    },
    {
      "core_id": "SDTM-060",
      "rule_type": "DEFINE_CODELIST_CHECK",
      "executability": "Partially Executable",
      "sensitivity": "Error",
      "description": "AEOUT values in AE must be from the codelist declared in Define-XML.",
      "authority": "CDISC",
      "standards": [
        "sdtmig"
      ],
      "classes": [
        "Events"
      ],
      "domains": [
        "AE"
      ],
      "datasets": [
        "DEFINE"
      ],
      "operations": [
        {
          "operator": "define_codelist_check",
          "params": {
            "column": "AEOUT"
          }
        }
      ],
      "conditions": {
        "all": [
          {
            "name": "_pb_AEOUT_define_valid",
            "operator": "equal_to",
            "value": false
          }
        ]
      },
      "actions": {
        "id": "generate_record_error",
        "params": {
          "message": "AE.AEOUT contains a value not in the Define-XML declared codelist."
        }
      }
    },
    {
      "core_id": "SDTM-061",
      "rule_type": "RECORD_CHECK",
      "executability": "Fully Executable",
      "sensitivity": "Error",
      "description": "AGEU in DM must use AGEU codelist when present.",
      "authority": "CDISC",
      "standards": [
        "sdtmig"
      ],
      "classes": [
        "Special-Purpose"
      ],
      "domains": [
        "DM"
      ],
      "datasets": [],
      "operations": [
        {
          "operator": "codelist_check",
          "params": {
            "column": "AGEU",
            "codelist": "AGEU"
          }
        }
      ],
      "conditions": {
        "all": [
          {
            "name": "AGEU",
            "operator": "is_not_null",
            "value": null
          },
          {
            "name": "_pb_AGEU_valid",
            "operator": "equal_to",
            "value": false
          }
        ]
      },
      "actions": {
        "id": "generate_record_error",
        "params": {
          "message": "AGEU value is not in the AGEU codelist."
        }
      }
    },
    {
      "core_id": "SDTM-062",
      "rule_type": "RECORD_CHECK",
      "executability": "Fully Executable",
      "sensitivity": "Error",
      "description": "BRTHDTC in DM must conform to ISO 8601 when present.",
      "authority": "CDISC",
      "standards": [
        "sdtmig"
      ],
      "classes": [
        "Special-Purpose"
      ],
      "domains": [
        "DM"
      ],
      "datasets": [],
      "operations": [
        {
          "operator": "iso8601_check",
          "params": {
            "column": "BRTHDTC"
          }
        }
      ],
      "conditions": {
        "all": [
          {
            "name": "BRTHDTC",
            "operator": "is_not_null",
            "value": null
          },
          {
            "name": "_pb_BRTHDTC_iso8601",
            "operator": "equal_to",
            "value": false
          }
        ]
      },
      "actions": {
        "id": "generate_record_error",
        "params": {
          "message": "BRTHDTC does not conform to ISO 8601 extended datetime format."
        }
      }
    },
    {
      "core_id": "SDTM-063",
      "rule_type": "RECORD_CHECK",
      "executability": "Fully Executable",
      "sensitivity": "Error",
      "description": "EXTRT must not be null in EX.",
      "authority": "CDISC",
      "standards": [
        "sdtmig"
      ],
      "classes": [
        "Interventions"
      ],
      "domains": [
        "EX"
      ],
      "datasets": [],
      "operations": [],
      "conditions": {
        "all": [
          {
            "name": "EXTRT",
            "operator": "is_null",
            "value": null
          }
        ]
      },
      "actions": {
        "id": "generate_record_error",
        "params": {
          "message": "EXTRT must not be null in EX."
        }
      }
    },
    {
      "core_id": "SDTM-064",
      "rule_type": "RECORD_CHECK",
      "executability": "Fully Executable",
      "sensitivity": "Error",
      "description": "EXSTDTC in EX must conform to ISO 8601 when present.",
      "authority": "CDISC",
      "standards": [
        "sdtmig"
      ],
      "classes": [
        "Interventions"
      ],
      "domains": [
        "EX"
      ],
      "datasets": [],
      "operations": [
        {
          "operator": "iso8601_check",
          "params": {
            "column": "EXSTDTC"
          }
        }
      ],
      "conditions": {
        "all": [
          {
            "name": "EXSTDTC",
            "operator": "is_not_null",
            "value": null
          },
          {
            "name": "_pb_EXSTDTC_iso8601",
            "operator": "equal_to",
            "value": false
          }
        ]
      },
      "actions": {
        "id": "generate_record_error",
        "params": {
          "message": "EXSTDTC does not conform to ISO 8601 extended datetime format."
        }
      }
    },
    {
      "core_id": "SDTM-065",
      "rule_type": "RECORD_CHECK",
      "executability": "Fully Executable",
      "sensitivity": "Error",
      "description": "EXENDTC in EX must conform to ISO 8601 when present.",
      "authority": "CDISC",
      "standards": [
        "sdtmig"
      ],
      "classes": [
        "Interventions"
      ],
      "domains": [
        "EX"
      ],
      "datasets": [],
      "operations": [
        {
          "operator": "iso8601_check",
          "params": {
            "column": "EXENDTC"
          }
        }
      ],
      "conditions": {
        "all": [
          {
            "name": "EXENDTC",
            "operator": "is_not_null",
            "value": null
          },
          {
            "name": "_pb_EXENDTC_iso8601",
            "operator": "equal_to",
            "value": false
          }
        ]
      },
      "actions": {
        "id": "generate_record_error",
        "params": {
          "message": "EXENDTC does not conform to ISO 8601 extended datetime format."
        }
      }
    },
    {
      "core_id": "SDTM-066",
      "rule_type": "RECORD_CHECK",
      "executability": "Fully Executable",
      "sensitivity": "Error",
      "description": "EXDOSFRQ in EX must use FREQ codelist when present.",
      "authority": "CDISC",
      "standards": [
        "sdtmig"
      ],
      "classes": [
        "Interventions"
      ],
      "domains": [
        "EX"
      ],
      "datasets": [],
      "operations": [
        {
          "operator": "codelist_check",
          "params": {
            "column": "EXDOSFRQ",
            "codelist": "FREQ"
          }
        }
      ],
      "conditions": {
        "all": [
          {
            "name": "EXDOSFRQ",
            "operator": "is_not_null",
            "value": null
          },
          {
            "name": "_pb_EXDOSFRQ_valid",
            "operator": "equal_to",
            "value": false
          }
        ]
      },
      "actions": {
        "id": "generate_record_error",
        "params": {
          "message": "EXDOSFRQ value is not in the FREQ codelist."
        }
      }
    },
    {
      "core_id": "SDTM-067",
      "rule_type": "RECORD_CHECK",
      "executability": "Fully Executable",
      "sensitivity": "Error",
      "description": "EXROUTE in EX must use ROUTE codelist when present.",
      "authority": "CDISC",
      "standards": [
        "sdtmig"
      ],
      "classes": [
        "Interventions"
      ],
      "domains": [
        "EX"
      ],
      "datasets": [],
      "operations": [
        {
          "operator": "codelist_check",
          "params": {
            "column": "EXROUTE",
            "codelist": "ROUTE"
          }
        }
      ],
      "conditions": {
        "all": [
          {
            "name": "EXROUTE",
            "operator": "is_not_null",
            "value": null
          },
          {
            "name": "_pb_EXROUTE_valid",
            "operator": "equal_to",
            "value": false
          }
        ]
      },
      "actions": {
        "id": "generate_record_error",
        "params": {
          "message": "EXROUTE value is not in the ROUTE codelist."
        }
      }
    },
    {
      "core_id": "SDTM-068",
      "rule_type": "RECORD_CHECK",
      "executability": "Fully Executable",
      "sensitivity": "Error",
      "description": "EXDOSFRM in EX must use FRM codelist when present.",
      "authority": "CDISC",
      "standards": [
        "sdtmig"
      ],
      "classes": [
        "Interventions"
      ],
      "domains": [
        "EX"
      ],
      "datasets": [],
      "operations": [
        {
          "operator": "codelist_check",
          "params": {
            "column": "EXDOSFRM",
            "codelist": "FRM"
          }
        }
      ],
      "conditions": {
        "all": [
          {
            "name": "EXDOSFRM",
            "operator": "is_not_null",
            "value": null
          },
          {
            "name": "_pb_EXDOSFRM_valid",
            "operator": "equal_to",
            "value": false
          }
        ]
      },
      "actions": {
        "id": "generate_record_error",
        "params": {
          "message": "EXDOSFRM value is not in the FRM codelist."
        }
      }
    },
    {
      "core_id": "SDTM-069",
      "rule_type": "RECORD_CHECK",
      "executability": "Fully Executable",
      "sensitivity": "Error",
      "description": "CMTRT must not be null in CM.",
      "authority": "CDISC",
      "standards": [
        "sdtmig"
      ],
      "classes": [
        "Interventions"
      ],
      "domains": [
        "CM"
      ],
      "datasets": [],
      "operations": [],
      "conditions": {
        "all": [
          {
            "name": "CMTRT",
            "operator": "is_null",
            "value": null
          }
        ]
      },
      "actions": {
        "id": "generate_record_error",
        "params": {
          "message": "CMTRT must not be null in CM."
        }
      }
    },
    {
      "core_id": "SDTM-070",
      "rule_type": "RECORD_CHECK",
      "executability": "Fully Executable",
      "sensitivity": "Error",
      "description": "CMSTDTC in CM must conform to ISO 8601 when present.",
      "authority": "CDISC",
      "standards": [
        "sdtmig"
      ],
      "classes": [
        "Interventions"
      ],
      "domains": [
        "CM"
      ],
      "datasets": [],
      "operations": [
        {
          "operator": "iso8601_check",
          "params": {
            "column": "CMSTDTC"
          }
        }
      ],
      "conditions": {
        "all": [
          {
            "name": "CMSTDTC",
            "operator": "is_not_null",
            "value": null
          },
          {
            "name": "_pb_CMSTDTC_iso8601",
            "operator": "equal_to",
            "value": false
          }
        ]
      },
      "actions": {
        "id": "generate_record_error",
        "params": {
          "message": "CMSTDTC does not conform to ISO 8601 extended datetime format."
        }
      }
    },
    {
      "core_id": "SDTM-071",
      "rule_type": "RECORD_CHECK",
      "executability": "Fully Executable",
      "sensitivity": "Error",
      "description": "CMENDTC in CM must conform to ISO 8601 when present.",
      "authority": "CDISC",
      "standards": [
        "sdtmig"
      ],
      "classes": [
        "Interventions"
      ],
      "domains": [
        "CM"
      ],
      "datasets": [],
      "operations": [
        {
          "operator": "iso8601_check",
          "params": {
            "column": "CMENDTC"
          }
        }
      ],
      "conditions": {
        "all": [
          {
            "name": "CMENDTC",
            "operator": "is_not_null",
            "value": null
          },
          {
            "name": "_pb_CMENDTC_iso8601",
            "operator": "equal_to",
            "value": false
          }
        ]
      },
      "actions": {
        "id": "generate_record_error",
        "params": {
          "message": "CMENDTC does not conform to ISO 8601 extended datetime format."
        }
      }
    },
    {
      "core_id": "SDTM-072",
      "rule_type": "RECORD_CHECK",
      "executability": "Fully Executable",
      "sensitivity": "Error",
      "description": "CMROUTE in CM must use ROUTE codelist when present.",
      "authority": "CDISC",
      "standards": [
        "sdtmig"
      ],
      "classes": [
        "Interventions"
      ],
      "domains": [
        "CM"
      ],
      "datasets": [],
      "operations": [
        {
          "operator": "codelist_check",
          "params": {
            "column": "CMROUTE",
            "codelist": "ROUTE"
          }
        }
      ],
      "conditions": {
        "all": [
          {
            "name": "CMROUTE",
            "operator": "is_not_null",
            "value": null
          },
          {
            "name": "_pb_CMROUTE_valid",
            "operator": "equal_to",
            "value": false
          }
        ]
      },
      "actions": {
        "id": "generate_record_error",
        "params": {
          "message": "CMROUTE value is not in the ROUTE codelist."
        }
      }
    },
    {
      "core_id": "SDTM-073",
      "rule_type": "RECORD_CHECK",
      "executability": "Fully Executable",
      "sensitivity": "Error",
      "description": "DSTERM must not be null in DS.",
      "authority": "CDISC",
      "standards": [
        "sdtmig"
      ],
      "classes": [
        "Events"
      ],
      "domains": [
        "DS"
      ],
      "datasets": [],
      "operations": [],
      "conditions": {
        "all": [
          {
            "name": "DSTERM",
            "operator": "is_null",
            "value": null
          }
        ]
      },
      "actions": {
        "id": "generate_record_error",
        "params": {
          "message": "DSTERM must not be null in DS."
        }
      }
    },
    {
      "core_id": "SDTM-074",
      "rule_type": "RECORD_CHECK",
      "executability": "Fully Executable",
      "sensitivity": "Error",
      "description": "DSDECOD must not be null in DS.",
      "authority": "CDISC",
      "standards": [
        "sdtmig"
      ],
      "classes": [
        "Events"
      ],
      "domains": [
        "DS"
      ],
      "datasets": [],
      "operations": [],
      "conditions": {
        "all": [
          {
            "name": "DSDECOD",
            "operator": "is_null",
            "value": null
          }
        ]
      },
      "actions": {
        "id": "generate_record_error",
        "params": {
          "message": "DSDECOD must not be null in DS."
        }
      }
    },
    {
      "core_id": "SDTM-075",
      "rule_type": "RECORD_CHECK",
      "executability": "Fully Executable",
      "sensitivity": "Error",
      "description": "DSSTDTC in DS must conform to ISO 8601 when present.",
      "authority": "CDISC",
      "standards": [
        "sdtmig"
      ],
      "classes": [
        "Events"
      ],
      "domains": [
        "DS"
      ],
      "datasets": [],
      "operations": [
        {
          "operator": "iso8601_check",
          "params": {
            "column": "DSSTDTC"
          }
        }
      ],
      "conditions": {
        "all": [
          {
            "name": "DSSTDTC",
            "operator": "is_not_null",
            "value": null
          },
          {
            "name": "_pb_DSSTDTC_iso8601",
            "operator": "equal_to",
            "value": false
          }
        ]
      },
      "actions": {
        "id": "generate_record_error",
        "params": {
          "message": "DSSTDTC does not conform to ISO 8601 extended datetime format."
        }
      }
    },
    {
      "core_id": "SDTM-076",
      "rule_type": "RECORD_CHECK",
      "executability": "Fully Executable",
      "sensitivity": "Error",
      "description": "DSSEQ must not be null in DS.",
      "authority": "CDISC",
      "standards": [
        "sdtmig"
      ],
      "classes": [
        "Events"
      ],
      "domains": [
        "DS"
      ],
      "datasets": [],
      "operations": [],
      "conditions": {
        "all": [
          {
            "name": "DSSEQ",
            "operator": "is_null",
            "value": null
          }
        ]
      },
      "actions": {
        "id": "generate_record_error",
        "params": {
          "message": "DSSEQ must not be null in DS."
        }
      }
    },
    {
      "core_id": "SDTM-077",
      "rule_type": "RECORD_CHECK",
      "executability": "Fully Executable",
      "sensitivity": "Error",
      "description": "MHTERM must not be null in MH.",
      "authority": "CDISC",
      "standards": [
        "sdtmig"
      ],
      "classes": [
        "Events"
      ],
      "domains": [
        "MH"
      ],
      "datasets": [],
      "operations": [],
      "conditions": {
        "all": [
          {
            "name": "MHTERM",
            "operator": "is_null",
            "value": null
          }
        ]
      },
      "actions": {
        "id": "generate_record_error",
        "params": {
          "message": "MHTERM must not be null in MH."
        }
      }
    },
    {
      "core_id": "SDTM-078",
      "rule_type": "RECORD_CHECK",
      "executability": "Fully Executable",
      "sensitivity": "Error",
      "description": "MHSTDTC in MH must conform to ISO 8601 when present.",
      "authority": "CDISC",
      "standards": [
        "sdtmig"
      ],
      "classes": [
        "Events"
      ],
      "domains": [
        "MH"
      ],
      "datasets": [],
      "operations": [
        {
          "operator": "iso8601_check",
          "params": {
            "column": "MHSTDTC"
          }
        }
      ],
      "conditions": {
        "all": [
          {
            "name": "MHSTDTC",
            "operator": "is_not_null",
            "value": null
          },
          {
            "name": "_pb_MHSTDTC_iso8601",
            "operator": "equal_to",
            "value": false
          }
        ]
      },
      "actions": {
        "id": "generate_record_error",
        "params": {
          "message": "MHSTDTC does not conform to ISO 8601 extended datetime format."
        }
      }
    },
    {
      "core_id": "SDTM-079",
      "rule_type": "RECORD_CHECK",
      "executability": "Fully Executable",
      "sensitivity": "Error",
      "description": "MHENDTC in MH must conform to ISO 8601 when present.",
      "authority": "CDISC",
      "standards": [
        "sdtmig"
      ],
      "classes": [
        "Events"
      ],
      "domains": [
        "MH"
      ],
      "datasets": [],
      "operations": [
        {
          "operator": "iso8601_check",
          "params": {
            "column": "MHENDTC"
          }
        }
      ],
      "conditions": {
        "all": [
          {
            "name": "MHENDTC",
            "operator": "is_not_null",
            "value": null
          },
          {
            "name": "_pb_MHENDTC_iso8601",
            "operator": "equal_to",
            "value": false
          }
        ]
      },
      "actions": {
        "id": "generate_record_error",
        "params": {
          "message": "MHENDTC does not conform to ISO 8601 extended datetime format."
        }
      }
    },
    {
      "core_id": "SDTM-080",
      "rule_type": "RECORD_CHECK",
      "executability": "Fully Executable",
      "sensitivity": "Error",
      "description": "VISITNUM must not be null in SV.",
      "authority": "CDISC",
      "standards": [
        "sdtmig"
      ],
      "classes": [
        "Trial Design"
      ],
      "domains": [
        "SV"
      ],
      "datasets": [],
      "operations": [],
      "conditions": {
        "all": [
          {
            "name": "VISITNUM",
            "operator": "is_null",
            "value": null
          }
        ]
      },
      "actions": {
        "id": "generate_record_error",
        "params": {
          "message": "VISITNUM must not be null in SV."
        }
      }
    },
    {
      "core_id": "SDTM-081",
      "rule_type": "RECORD_CHECK",
      "executability": "Fully Executable",
      "sensitivity": "Error",
      "description": "SVSTDTC in SV must conform to ISO 8601 when present.",
      "authority": "CDISC",
      "standards": [
        "sdtmig"
      ],
      "classes": [
        "Trial Design"
      ],
      "domains": [
        "SV"
      ],
      "datasets": [],
      "operations": [
        {
          "operator": "iso8601_check",
          "params": {
            "column": "SVSTDTC"
          }
        }
      ],
      "conditions": {
        "all": [
          {
            "name": "SVSTDTC",
            "operator": "is_not_null",
            "value": null
          },
          {
            "name": "_pb_SVSTDTC_iso8601",
            "operator": "equal_to",
            "value": false
          }
        ]
      },
      "actions": {
        "id": "generate_record_error",
        "params": {
          "message": "SVSTDTC does not conform to ISO 8601 extended datetime format."
        }
      }
    },
    {
      "core_id": "SDTM-082",
      "rule_type": "RECORD_CHECK",
      "executability": "Fully Executable",
      "sensitivity": "Error",
      "description": "SVENDTC in SV must conform to ISO 8601 when present.",
      "authority": "CDISC",
      "standards": [
        "sdtmig"
      ],
      "classes": [
        "Trial Design"
      ],
      "domains": [
        "SV"
      ],
      "datasets": [],
      "operations": [
        {
          "operator": "iso8601_check",
          "params": {
            "column": "SVENDTC"
          }
        }
      ],
      "conditions": {
        "all": [
          {
            "name": "SVENDTC",
            "operator": "is_not_null",
            "value": null
          },
          {
            "name": "_pb_SVENDTC_iso8601",
            "operator": "equal_to",
            "value": false
          }
        ]
      },
      "actions": {
        "id": "generate_record_error",
        "params": {
          "message": "SVENDTC does not conform to ISO 8601 extended datetime format."
        }
      }
    },
    {
      "core_id": "SDTM-083",
      "rule_type": "RECORD_CHECK",
      "executability": "Fully Executable",
      "sensitivity": "Error",
      "description": "EGTEST must not be null in EG.",
      "authority": "CDISC",
      "standards": [
        "sdtmig"
      ],
      "classes": [
        "Findings"
      ],
      "domains": [
        "EG"
      ],
      "datasets": [],
      "operations": [],
      "conditions": {
        "all": [
          {
            "name": "EGTEST",
            "operator": "is_null",
            "value": null
          }
        ]
      },
      "actions": {
        "id": "generate_record_error",
        "params": {
          "message": "EGTEST must not be null in EG."
        }
      }
    },
    {
      "core_id": "SDTM-084",
      "rule_type": "RECORD_CHECK",
      "executability": "Fully Executable",
      "sensitivity": "Error",
      "description": "EGTESTCD must not be null in EG.",
      "authority": "CDISC",
      "standards": [
        "sdtmig"
      ],
      "classes": [
        "Findings"
      ],
      "domains": [
        "EG"
      ],
      "datasets": [],
      "operations": [],
      "conditions": {
        "all": [
          {
            "name": "EGTESTCD",
            "operator": "is_null",
            "value": null
          }
        ]
      },
      "actions": {
        "id": "generate_record_error",
        "params": {
          "message": "EGTESTCD must not be null in EG."
        }
      }
    },
    {
      "core_id": "SDTM-085",
      "rule_type": "RECORD_CHECK",
      "executability": "Fully Executable",
      "sensitivity": "Error",
      "description": "EGDTC in EG must conform to ISO 8601 when present.",
      "authority": "CDISC",
      "standards": [
        "sdtmig"
      ],
      "classes": [
        "Findings"
      ],
      "domains": [
        "EG"
      ],
      "datasets": [],
      "operations": [
        {
          "operator": "iso8601_check",
          "params": {
            "column": "EGDTC"
          }
        }
      ],
      "conditions": {
        "all": [
          {
            "name": "EGDTC",
            "operator": "is_not_null",
            "value": null
          },
          {
            "name": "_pb_EGDTC_iso8601",
            "operator": "equal_to",
            "value": false
          }
        ]
      },
      "actions": {
        "id": "generate_record_error",
        "params": {
          "message": "EGDTC does not conform to ISO 8601 extended datetime format."
        }
      }
    },
    {
      "core_id": "SDTM-086",
      "rule_type": "RECORD_CHECK",
      "executability": "Fully Executable",
      "sensitivity": "Error",
      "description": "AESEV in AE must use AESEV codelist when present.",
      "authority": "CDISC",
      "standards": [
        "sdtmig"
      ],
      "classes": [
        "Events"
      ],
      "domains": [
        "AE"
      ],
      "datasets": [],
      "operations": [
        {
          "operator": "codelist_check",
          "params": {
            "column": "AESEV",
            "codelist": "AESEV"
          }
        }
      ],
      "conditions": {
        "all": [
          {
            "name": "AESEV",
            "operator": "is_not_null",
            "value": null
          },
          {
            "name": "_pb_AESEV_valid",
            "operator": "equal_to",
            "value": false
          }
        ]
      },
      "actions": {
        "id": "generate_record_error",
        "params": {
          "message": "AESEV value is not in the AESEV codelist."
        }
      }
    },
    {
      "core_id": "SDTM-087",
      "rule_type": "RECORD_CHECK",
      "executability": "Fully Executable",
      "sensitivity": "Error",
      "description": "AETOXGR in AE must use AETOXGR codelist when present.",
      "authority": "CDISC",
      "standards": [
        "sdtmig"
      ],
      "classes": [
        "Events"
      ],
      "domains": [
        "AE"
      ],
      "datasets": [],
      "operations": [
        {
          "operator": "codelist_check",
          "params": {
            "column": "AETOXGR",
            "codelist": "AETOXGR"
          }
        }
      ],
      "conditions": {
        "all": [
          {
            "name": "AETOXGR",
            "operator": "is_not_null",
            "value": null
          },
          {
            "name": "_pb_AETOXGR_valid",
            "operator": "equal_to",
            "value": false
          }
        ]
      },
      "actions": {
        "id": "generate_record_error",
        "params": {
          "message": "AETOXGR value is not in the AETOXGR codelist."
        }
      }
    },
    {
      "core_id": "SDTM-088",
      "rule_type": "RECORD_CHECK",
      "executability": "Fully Executable",
      "sensitivity": "Error",
      "description": "AEBODSYS must not be null in AE.",
      "authority": "CDISC",
      "standards": [
        "sdtmig"
      ],
      "classes": [
        "Events"
      ],
      "domains": [
        "AE"
      ],
      "datasets": [],
      "operations": [],
      "conditions": {
        "all": [
          {
            "name": "AEBODSYS",
            "operator": "is_null",
            "value": null
          }
        ]
      },
      "actions": {
        "id": "generate_record_error",
        "params": {
          "message": "AEBODSYS must not be null in AE."
        }
      }
    },
    {
      "core_id": "SDTM-089",
      "rule_type": "RECORD_CHECK",
      "executability": "Fully Executable",
      "sensitivity": "Error",
      "description": "AEACN in AE must use AEACN codelist when present.",
      "authority": "CDISC",
      "standards": [
        "sdtmig"
      ],
      "classes": [
        "Events"
      ],
      "domains": [
        "AE"
      ],
      "datasets": [],
      "operations": [
        {
          "operator": "codelist_check",
          "params": {
            "column": "AEACN",
            "codelist": "AEACN"
          }
        }
      ],
      "conditions": {
        "all": [
          {
            "name": "AEACN",
            "operator": "is_not_null",
            "value": null
          },
          {
            "name": "_pb_AEACN_valid",
            "operator": "equal_to",
            "value": false
          }
        ]
      },
      "actions": {
        "id": "generate_record_error",
        "params": {
          "message": "AEACN value is not in the AEACN codelist."
        }
      }
    },
    {
      "core_id": "SDTM-090",
      "rule_type": "RECORD_CHECK",
      "executability": "Fully Executable",
      "sensitivity": "Error",
      "description": "AESEQ must not be null in AE.",
      "authority": "CDISC",
      "standards": [
        "sdtmig"
      ],
      "classes": [
        "Events"
      ],
      "domains": [
        "AE"
      ],
      "datasets": [],
      "operations": [],
      "conditions": {
        "all": [
          {
            "name": "AESEQ",
            "operator": "is_null",
            "value": null
          }
        ]
      },
      "actions": {
        "id": "generate_record_error",
        "params": {
          "message": "AESEQ must not be null in AE."
        }
      }
    },
    {
      "core_id": "SDTM-091",
      "rule_type": "RECORD_CHECK",
      "executability": "Fully Executable",
      "sensitivity": "Error",
      "description": "VSTESTCD must not be null in VS.",
      "authority": "CDISC",
      "standards": [
        "sdtmig"
      ],
      "classes": [
        "Findings"
      ],
      "domains": [
        "VS"
      ],
      "datasets": [],
      "operations": [],
      "conditions": {
        "all": [
          {
            "name": "VSTESTCD",
            "operator": "is_null",
            "value": null
          }
        ]
      },
      "actions": {
        "id": "generate_record_error",
        "params": {
          "message": "VSTESTCD must not be null in VS."
        }
      }
    },
    {
      "core_id": "SDTM-092",
      "rule_type": "RECORD_CHECK",
      "executability": "Fully Executable",
      "sensitivity": "Error",
      "description": "VSSTRESU in VS must use VSRESU codelist when present.",
      "authority": "CDISC",
      "standards": [
        "sdtmig"
      ],
      "classes": [
        "Findings"
      ],
      "domains": [
        "VS"
      ],
      "datasets": [],
      "operations": [
        {
          "operator": "codelist_check",
          "params": {
            "column": "VSSTRESU",
            "codelist": "VSRESU"
          }
        }
      ],
      "conditions": {
        "all": [
          {
            "name": "VSSTRESU",
            "operator": "is_not_null",
            "value": null
          },
          {
            "name": "_pb_VSSTRESU_valid",
            "operator": "equal_to",
            "value": false
          }
        ]
      },
      "actions": {
        "id": "generate_record_error",
        "params": {
          "message": "VSSTRESU value is not in the VSRESU codelist."
        }
      }
    },
    {
      "core_id": "SDTM-093",
      "rule_type": "RECORD_CHECK",
      "executability": "Fully Executable",
      "sensitivity": "Error",
      "description": "VSBLFL in VS must use NY codelist when present.",
      "authority": "CDISC",
      "standards": [
        "sdtmig"
      ],
      "classes": [
        "Findings"
      ],
      "domains": [
        "VS"
      ],
      "datasets": [],
      "operations": [
        {
          "operator": "codelist_check",
          "params": {
            "column": "VSBLFL",
            "codelist": "NY"
          }
        }
      ],
      "conditions": {
        "all": [
          {
            "name": "VSBLFL",
            "operator": "is_not_null",
            "value": null
          },
          {
            "name": "_pb_VSBLFL_valid",
            "operator": "equal_to",
            "value": false
          }
        ]
      },
      "actions": {
        "id": "generate_record_error",
        "params": {
          "message": "VSBLFL value is not in the NY codelist."
        }
      }
    },
    {
      "core_id": "SDTM-094",
      "rule_type": "RECORD_CHECK",
      "executability": "Fully Executable",
      "sensitivity": "Error",
      "description": "LBSTRESU in LB must use LBSTRESU codelist when present.",
      "authority": "CDISC",
      "standards": [
        "sdtmig"
      ],
      "classes": [
        "Findings"
      ],
      "domains": [
        "LB"
      ],
      "datasets": [],
      "operations": [
        {
          "operator": "codelist_check",
          "params": {
            "column": "LBSTRESU",
            "codelist": "LBSTRESU"
          }
        }
      ],
      "conditions": {
        "all": [
          {
            "name": "LBSTRESU",
            "operator": "is_not_null",
            "value": null
          },
          {
            "name": "_pb_LBSTRESU_valid",
            "operator": "equal_to",
            "value": false
          }
        ]
      },
      "actions": {
        "id": "generate_record_error",
        "params": {
          "message": "LBSTRESU value is not in the LBSTRESU codelist."
        }
      }
    },
    {
      "core_id": "SDTM-095",
      "rule_type": "RECORD_CHECK",
      "executability": "Fully Executable",
      "sensitivity": "Error",
      "description": "LBBLFL in LB must use NY codelist when present.",
      "authority": "CDISC",
      "standards": [
        "sdtmig"
      ],
      "classes": [
        "Findings"
      ],
      "domains": [
        "LB"
      ],
      "datasets": [],
      "operations": [
        {
          "operator": "codelist_check",
          "params": {
            "column": "LBBLFL",
            "codelist": "NY"
          }
        }
      ],
      "conditions": {
        "all": [
          {
            "name": "LBBLFL",
            "operator": "is_not_null",
            "value": null
          },
          {
            "name": "_pb_LBBLFL_valid",
            "operator": "equal_to",
            "value": false
          }
        ]
      },
      "actions": {
        "id": "generate_record_error",
        "params": {
          "message": "LBBLFL value is not in the NY codelist."
        }
      }
    },
    {
      "core_id": "SDTM-096",
      "rule_type": "RECORD_CHECK",
      "executability": "Fully Executable",
      "sensitivity": "Error",
      "description": "LBNRIND in LB must use NRIND codelist when present.",
      "authority": "CDISC",
      "standards": [
        "sdtmig"
      ],
      "classes": [
        "Findings"
      ],
      "domains": [
        "LB"
      ],
      "datasets": [],
      "operations": [
        {
          "operator": "codelist_check",
          "params": {
            "column": "LBNRIND",
            "codelist": "NRIND"
          }
        }
      ],
      "conditions": {
        "all": [
          {
            "name": "LBNRIND",
            "operator": "is_not_null",
            "value": null
          },
          {
            "name": "_pb_LBNRIND_valid",
            "operator": "equal_to",
            "value": false
          }
        ]
      },
      "actions": {
        "id": "generate_record_error",
        "params": {
          "message": "LBNRIND value is not in the NRIND codelist."
        }
      }
    },
    {
      "core_id": "SDTM-097",
      "rule_type": "RECORD_CHECK",
      "executability": "Fully Executable",
      "sensitivity": "Error",
      "description": "PETEST must not be null in PE.",
      "authority": "CDISC",
      "standards": [
        "sdtmig"
      ],
      "classes": [
        "Findings"
      ],
      "domains": [
        "PE"
      ],
      "datasets": [],
      "operations": [],
      "conditions": {
        "all": [
          {
            "name": "PETEST",
            "operator": "is_null",
            "value": null
          }
        ]
      },
      "actions": {
        "id": "generate_record_error",
        "params": {
          "message": "PETEST must not be null in PE."
        }
      }
    },
    {
      "core_id": "SDTM-098",
      "rule_type": "RECORD_CHECK",
      "executability": "Fully Executable",
      "sensitivity": "Error",
      "description": "PEDTC in PE must conform to ISO 8601 when present.",
      "authority": "CDISC",
      "standards": [
        "sdtmig"
      ],
      "classes": [
        "Findings"
      ],
      "domains": [
        "PE"
      ],
      "datasets": [],
      "operations": [
        {
          "operator": "iso8601_check",
          "params": {
            "column": "PEDTC"
          }
        }
      ],
      "conditions": {
        "all": [
          {
            "name": "PEDTC",
            "operator": "is_not_null",
            "value": null
          },
          {
            "name": "_pb_PEDTC_iso8601",
            "operator": "equal_to",
            "value": false
          }
        ]
      },
      "actions": {
        "id": "generate_record_error",
        "params": {
          "message": "PEDTC does not conform to ISO 8601 extended datetime format."
        }
      }
    },
    {
      "core_id": "SDTM-099",
      "rule_type": "RECORD_CHECK",
      "executability": "Fully Executable",
      "sensitivity": "Error",
      "description": "IETEST must not be null in IE.",
      "authority": "CDISC",
      "standards": [
        "sdtmig"
      ],
      "classes": [
        "Special-Purpose"
      ],
      "domains": [
        "IE"
      ],
      "datasets": [],
      "operations": [],
      "conditions": {
        "all": [
          {
            "name": "IETEST",
            "operator": "is_null",
            "value": null
          }
        ]
      },
      "actions": {
        "id": "generate_record_error",
        "params": {
          "message": "IETEST must not be null in IE."
        }
      }
    },
    {
      "core_id": "SDTM-100",
      "rule_type": "RECORD_CHECK",
      "executability": "Fully Executable",
      "sensitivity": "Error",
      "description": "IECAT in IE must use IECAT codelist when present.",
      "authority": "CDISC",
      "standards": [
        "sdtmig"
      ],
      "classes": [
        "Special-Purpose"
      ],
      "domains": [
        "IE"
      ],
      "datasets": [],
      "operations": [
        {
          "operator": "codelist_check",
          "params": {
            "column": "IECAT",
            "codelist": "IECAT"
          }
        }
      ],
      "conditions": {
        "all": [
          {
            "name": "IECAT",
            "operator": "is_not_null",
            "value": null
          },
          {
            "name": "_pb_IECAT_valid",
            "operator": "equal_to",
            "value": false
          }
        ]
      },
      "actions": {
        "id": "generate_record_error",
        "params": {
          "message": "IECAT value is not in the IECAT codelist."
        }
      }
    },
    {
      "core_id": "SDTM-101",
      "rule_type": "RECORD_CHECK",
      "executability": "Fully Executable",
      "sensitivity": "Error",
      "description": "RDOMAIN must not be null in SUPP-- datasets.",
      "authority": "CDISC",
      "standards": [
        "sdtmig"
      ],
      "classes": [
        "Relationship"
      ],
      "domains": [
        "SUPPDM",
        "SUPPAE",
        "SUPPLB",
        "SUPPVS",
        "SUPPEG",
        "SUPPCM",
        "SUPPDS",
        "SUPPMH"
      ],
      "datasets": [],
      "operations": [],
      "conditions": {
        "all": [
          {
            "name": "RDOMAIN",
            "operator": "is_null",
            "value": null
          }
        ]
      },
      "actions": {
        "id": "generate_record_error",
        "params": {
          "message": "RDOMAIN must not be null in SUPP-- datasets."
        }
      }
    },
    {
      "core_id": "SDTM-102",
      "rule_type": "RECORD_CHECK",
      "executability": "Fully Executable",
      "sensitivity": "Error",
      "description": "QNAM must not be null in SUPP-- datasets.",
      "authority": "CDISC",
      "standards": [
        "sdtmig"
      ],
      "classes": [
        "Relationship"
      ],
      "domains": [
        "SUPPDM",
        "SUPPAE",
        "SUPPLB",
        "SUPPVS",
        "SUPPEG",
        "SUPPCM",
        "SUPPDS",
        "SUPPMH"
      ],
      "datasets": [],
      "operations": [],
      "conditions": {
        "all": [
          {
            "name": "QNAM",
            "operator": "is_null",
            "value": null
          }
        ]
      },
      "actions": {
        "id": "generate_record_error",
        "params": {
          "message": "QNAM must not be null in SUPP-- datasets."
        }
      }
    },
    {
      "core_id": "SDTM-103",
      "rule_type": "RECORD_CHECK",
      "executability": "Fully Executable",
      "sensitivity": "Error",
      "description": "QLABEL must not be null in SUPP-- datasets.",
      "authority": "CDISC",
      "standards": [
        "sdtmig"
      ],
      "classes": [
        "Relationship"
      ],
      "domains": [
        "SUPPDM",
        "SUPPAE",
        "SUPPLB",
        "SUPPVS",
        "SUPPEG",
        "SUPPCM",
        "SUPPDS",
        "SUPPMH"
      ],
      "datasets": [],
      "operations": [],
      "conditions": {
        "all": [
          {
            "name": "QLABEL",
            "operator": "is_null",
            "value": null
          }
        ]
      },
      "actions": {
        "id": "generate_record_error",
        "params": {
          "message": "QLABEL must not be null in SUPP-- datasets."
        }
      }
    },
    {
      "core_id": "SDTM-104",
      "rule_type": "RECORD_CHECK",
      "executability": "Fully Executable",
      "sensitivity": "Error",
      "description": "TSPARMCD must not be null in TS.",
      "authority": "CDISC",
      "standards": [
        "sdtmig"
      ],
      "classes": [
        "Trial Design"
      ],
      "domains": [
        "TS"
      ],
      "datasets": [],
      "operations": [],
      "conditions": {
        "all": [
          {
            "name": "TSPARMCD",
            "operator": "is_null",
            "value": null
          }
        ]
      },
      "actions": {
        "id": "generate_record_error",
        "params": {
          "message": "TSPARMCD must not be null in TS."
        }
      }
    },
    {
      "core_id": "SDTM-105",
      "rule_type": "RECORD_CHECK",
      "executability": "Fully Executable",
      "sensitivity": "Error",
      "description": "TSPARM must not be null in TS.",
      "authority": "CDISC",
      "standards": [
        "sdtmig"
      ],
      "classes": [
        "Trial Design"
      ],
      "domains": [
        "TS"
      ],
      "datasets": [],
      "operations": [],
      "conditions": {
        "all": [
          {
            "name": "TSPARM",
            "operator": "is_null",
            "value": null
          }
        ]
      },
      "actions": {
        "id": "generate_record_error",
        "params": {
          "message": "TSPARM must not be null in TS."
        }
      }
    },
    {
      "core_id": "SDTM-106",
      "rule_type": "DATASET_CONTENTS_CHECK",
      "executability": "Fully Executable",
      "sensitivity": "Error",
      "description": "STUDYID must be consistent (same value) across all records within each domain.",
      "authority": "CDISC",
      "standards": [
        "sdtmig"
      ],
      "classes": [
        "All"
      ],
      "domains": [],
      "datasets": [],
      "operations": [
        {
          "operator": "consistency_check",
          "params": {
            "column": "STUDYID"
          }
        }
      ],
      "conditions": {
        "all": [
          {
            "name": "_pb_STUDYID_consistent",
            "operator": "equal_to",
            "value": false
          }
        ]
      },
      "actions": {
        "id": "generate_dataset_error",
        "params": {
          "message": "STUDYID must be consistent across all records within a domain."
        }
      }
    },
    {
      "core_id": "SDTM-107",
      "rule_type": "DATASET_CONTENTS_CHECK",
      "executability": "Fully Executable",
      "sensitivity": "Error",
      "description": "DOMAIN must be consistent (same value) across all records within each dataset.",
      "authority": "CDISC",
      "standards": [
        "sdtmig"
      ],
      "classes": [
        "All"
      ],
      "domains": [],
      "datasets": [],
      "operations": [
        {
          "operator": "consistency_check",
          "params": {
            "column": "DOMAIN"
          }
        }
      ],
      "conditions": {
        "all": [
          {
            "name": "_pb_DOMAIN_consistent",
            "operator": "equal_to",
            "value": false
          }
        ]
      },
      "actions": {
        "id": "generate_dataset_error",
        "params": {
          "message": "DOMAIN must be consistent across all records within a dataset."
        }
      }
    },
    {
      "core_id": "SDTM-108",
      "rule_type": "VARIABLE_METADATA_CHECK",
      "executability": "Fully Executable",
      "sensitivity": "Error",
      "description": "EX domain must contain required identifier and treatment variables.",
      "authority": "CDISC",
      "standards": [
        "sdtmig"
      ],
      "classes": [
        "Interventions"
      ],
      "domains": [
        "EX"
      ],
      "datasets": [],
      "operations": [
        {
          "operator": "has_required_variables",
          "params": {
            "variables": [
              "STUDYID",
              "DOMAIN",
              "USUBJID",
              "EXSEQ",
              "EXTRT"
            ]
          }
        }
      ],
      "conditions": {
        "any": [
          {
            "name": "_pb_STUDYID_present",
            "operator": "equal_to",
            "value": false
          },
          {
            "name": "_pb_DOMAIN_present",
            "operator": "equal_to",
            "value": false
          },
          {
            "name": "_pb_USUBJID_present",
            "operator": "equal_to",
            "value": false
          },
          {
            "name": "_pb_EXSEQ_present",
            "operator": "equal_to",
            "value": false
          },
          {
            "name": "_pb_EXTRT_present",
            "operator": "equal_to",
            "value": false
          }
        ]
      },
      "actions": {
        "id": "generate_variable_error",
        "params": {
          "message": "EX domain is missing one or more required variables (STUDYID, DOMAIN, USUBJID, EXSEQ, EXTRT)."
        }
      }
    },
    {
      "core_id": "SDTM-109",
      "rule_type": "VARIABLE_METADATA_CHECK",
      "executability": "Fully Executable",
      "sensitivity": "Error",
      "description": "EX domain must contain timing variables EXSTDTC and EXENDTC.",
      "authority": "CDISC",
      "standards": [
        "sdtmig"
      ],
      "classes": [
        "Interventions"
      ],
      "domains": [
        "EX"
      ],
      "datasets": [],
      "operations": [
        {
          "operator": "has_required_variables",
          "params": {
            "variables": [
              "EXSTDTC",
              "EXENDTC"
            ]
          }
        }
      ],
      "conditions": {
        "any": [
          {
            "name": "_pb_EXSTDTC_present",
            "operator": "equal_to",
            "value": false
          },
          {
            "name": "_pb_EXENDTC_present",
            "operator": "equal_to",
            "value": false
          }
        ]
      },
      "actions": {
        "id": "generate_variable_error",
        "params": {
          "message": "EX domain is missing one or more required timing variables (EXSTDTC, EXENDTC)."
        }
      }
    },
    {
      "core_id": "SDTM-110",
      "rule_type": "VARIABLE_METADATA_CHECK",
      "executability": "Fully Executable",
      "sensitivity": "Error",
      "description": "CM domain must contain required identifier and treatment variables.",
      "authority": "CDISC",
      "standards": [
        "sdtmig"
      ],
      "classes": [
        "Interventions"
      ],
      "domains": [
        "CM"
      ],
      "datasets": [],
      "operations": [
        {
          "operator": "has_required_variables",
          "params": {
            "variables": [
              "STUDYID",
              "DOMAIN",
              "USUBJID",
              "CMSEQ",
              "CMTRT"
            ]
          }
        }
      ],
      "conditions": {
        "any": [
          {
            "name": "_pb_STUDYID_present",
            "operator": "equal_to",
            "value": false
          },
          {
            "name": "_pb_DOMAIN_present",
            "operator": "equal_to",
            "value": false
          },
          {
            "name": "_pb_USUBJID_present",
            "operator": "equal_to",
            "value": false
          },
          {
            "name": "_pb_CMSEQ_present",
            "operator": "equal_to",
            "value": false
          },
          {
            "name": "_pb_CMTRT_present",
            "operator": "equal_to",
            "value": false
          }
        ]
      },
      "actions": {
        "id": "generate_variable_error",
        "params": {
          "message": "CM domain is missing one or more required variables (STUDYID, DOMAIN, USUBJID, CMSEQ, CMTRT)."
        }
      }
    },
    {
      "core_id": "SDTM-111",
      "rule_type": "VARIABLE_METADATA_CHECK",
      "executability": "Fully Executable",
      "sensitivity": "Error",
      "description": "CM domain must contain timing variables CMSTDTC and CMENDTC.",
      "authority": "CDISC",
      "standards": [
        "sdtmig"
      ],
      "classes": [
        "Interventions"
      ],
      "domains": [
        "CM"
      ],
      "datasets": [],
      "operations": [
        {
          "operator": "has_required_variables",
          "params": {
            "variables": [
              "CMSTDTC",
              "CMENDTC"
            ]
          }
        }
      ],
      "conditions": {
        "any": [
          {
            "name": "_pb_CMSTDTC_present",
            "operator": "equal_to",
            "value": false
          },
          {
            "name": "_pb_CMENDTC_present",
            "operator": "equal_to",
            "value": false
          }
        ]
      },
      "actions": {
        "id": "generate_variable_error",
        "params": {
          "message": "CM domain is missing one or more required timing variables (CMSTDTC, CMENDTC)."
        }
      }
    },
    {
      "core_id": "SDTM-112",
      "rule_type": "VARIABLE_METADATA_CHECK",
      "executability": "Fully Executable",
      "sensitivity": "Error",
      "description": "DS domain must contain required identifier and disposition variables.",
      "authority": "CDISC",
      "standards": [
        "sdtmig"
      ],
      "classes": [
        "Events"
      ],
      "domains": [
        "DS"
      ],
      "datasets": [],
      "operations": [
        {
          "operator": "has_required_variables",
          "params": {
            "variables": [
              "STUDYID",
              "DOMAIN",
              "USUBJID",
              "DSSEQ",
              "DSTERM",
              "DSDECOD"
            ]
          }
        }
      ],
      "conditions": {
        "any": [
          {
            "name": "_pb_STUDYID_present",
            "operator": "equal_to",
            "value": false
          },
          {
            "name": "_pb_DOMAIN_present",
            "operator": "equal_to",
            "value": false
          },
          {
            "name": "_pb_USUBJID_present",
            "operator": "equal_to",
            "value": false
          },
          {
            "name": "_pb_DSSEQ_present",
            "operator": "equal_to",
            "value": false
          },
          {
            "name": "_pb_DSTERM_present",
            "operator": "equal_to",
            "value": false
          },
          {
            "name": "_pb_DSDECOD_present",
            "operator": "equal_to",
            "value": false
          }
        ]
      },
      "actions": {
        "id": "generate_variable_error",
        "params": {
          "message": "DS domain is missing one or more required variables (STUDYID, DOMAIN, USUBJID, DSSEQ, DSTERM, DSDECOD)."
        }
      }
    },
    {
      "core_id": "SDTM-113",
      "rule_type": "VARIABLE_METADATA_CHECK",
      "executability": "Fully Executable",
      "sensitivity": "Error",
      "description": "MH domain must contain required identifier and history variables.",
      "authority": "CDISC",
      "standards": [
        "sdtmig"
      ],
      "classes": [
        "Events"
      ],
      "domains": [
        "MH"
      ],
      "datasets": [],
      "operations": [
        {
          "operator": "has_required_variables",
          "params": {
            "variables": [
              "STUDYID",
              "DOMAIN",
              "USUBJID",
              "MHSEQ",
              "MHTERM"
            ]
          }
        }
      ],
      "conditions": {
        "any": [
          {
            "name": "_pb_STUDYID_present",
            "operator": "equal_to",
            "value": false
          },
          {
            "name": "_pb_DOMAIN_present",
            "operator": "equal_to",
            "value": false
          },
          {
            "name": "_pb_USUBJID_present",
            "operator": "equal_to",
            "value": false
          },
          {
            "name": "_pb_MHSEQ_present",
            "operator": "equal_to",
            "value": false
          },
          {
            "name": "_pb_MHTERM_present",
            "operator": "equal_to",
            "value": false
          }
        ]
      },
      "actions": {
        "id": "generate_variable_error",
        "params": {
          "message": "MH domain is missing one or more required variables (STUDYID, DOMAIN, USUBJID, MHSEQ, MHTERM)."
        }
      }
    },
    {
      "core_id": "SDTM-114",
      "rule_type": "VARIABLE_METADATA_CHECK",
      "executability": "Fully Executable",
      "sensitivity": "Error",
      "description": "SV domain must contain required identifier and visit variables.",
      "authority": "CDISC",
      "standards": [
        "sdtmig"
      ],
      "classes": [
        "Trial Design"
      ],
      "domains": [
        "SV"
      ],
      "datasets": [],
      "operations": [
        {
          "operator": "has_required_variables",
          "params": {
            "variables": [
              "STUDYID",
              "DOMAIN",
              "USUBJID",
              "VISITNUM",
              "SVSTDTC"
            ]
          }
        }
      ],
      "conditions": {
        "any": [
          {
            "name": "_pb_STUDYID_present",
            "operator": "equal_to",
            "value": false
          },
          {
            "name": "_pb_DOMAIN_present",
            "operator": "equal_to",
            "value": false
          },
          {
            "name": "_pb_USUBJID_present",
            "operator": "equal_to",
            "value": false
          },
          {
            "name": "_pb_VISITNUM_present",
            "operator": "equal_to",
            "value": false
          },
          {
            "name": "_pb_SVSTDTC_present",
            "operator": "equal_to",
            "value": false
          }
        ]
      },
      "actions": {
        "id": "generate_variable_error",
        "params": {
          "message": "SV domain is missing one or more required variables (STUDYID, DOMAIN, USUBJID, VISITNUM, SVSTDTC)."
        }
      }
    },
    {
      "core_id": "SDTM-115",
      "rule_type": "VARIABLE_METADATA_CHECK",
      "executability": "Fully Executable",
      "sensitivity": "Error",
      "description": "TS domain must contain required parameter variables.",
      "authority": "CDISC",
      "standards": [
        "sdtmig"
      ],
      "classes": [
        "Trial Design"
      ],
      "domains": [
        "TS"
      ],
      "datasets": [],
      "operations": [
        {
          "operator": "has_required_variables",
          "params": {
            "variables": [
              "STUDYID",
              "DOMAIN",
              "TSPARMCD",
              "TSPARM",
              "TSVAL"
            ]
          }
        }
      ],
      "conditions": {
        "any": [
          {
            "name": "_pb_STUDYID_present",
            "operator": "equal_to",
            "value": false
          },
          {
            "name": "_pb_DOMAIN_present",
            "operator": "equal_to",
            "value": false
          },
          {
            "name": "_pb_TSPARMCD_present",
            "operator": "equal_to",
            "value": false
          },
          {
            "name": "_pb_TSPARM_present",
            "operator": "equal_to",
            "value": false
          },
          {
            "name": "_pb_TSVAL_present",
            "operator": "equal_to",
            "value": false
          }
        ]
      },
      "actions": {
        "id": "generate_variable_error",
        "params": {
          "message": "TS domain is missing one or more required variables (STUDYID, DOMAIN, TSPARMCD, TSPARM, TSVAL)."
        }
      }
    },
    {
      "core_id": "SDTM-116",
      "rule_type": "VARIABLE_METADATA_CHECK",
      "executability": "Fully Executable",
      "sensitivity": "Error",
      "description": "IE domain must contain required inclusion/exclusion criteria variables.",
      "authority": "CDISC",
      "standards": [
        "sdtmig"
      ],
      "classes": [
        "Special-Purpose"
      ],
      "domains": [
        "IE"
      ],
      "datasets": [],
      "operations": [
        {
          "operator": "has_required_variables",
          "params": {
            "variables": [
              "STUDYID",
              "DOMAIN",
              "USUBJID",
              "IESEQ",
              "IETESTCD",
              "IETEST",
              "IECAT",
              "IEORRES"
            ]
          }
        }
      ],
      "conditions": {
        "any": [
          {
            "name": "_pb_STUDYID_present",
            "operator": "equal_to",
            "value": false
          },
          {
            "name": "_pb_DOMAIN_present",
            "operator": "equal_to",
            "value": false
          },
          {
            "name": "_pb_USUBJID_present",
            "operator": "equal_to",
            "value": false
          },
          {
            "name": "_pb_IESEQ_present",
            "operator": "equal_to",
            "value": false
          },
          {
            "name": "_pb_IETESTCD_present",
            "operator": "equal_to",
            "value": false
          },
          {
            "name": "_pb_IETEST_present",
            "operator": "equal_to",
            "value": false
          },
          {
            "name": "_pb_IECAT_present",
            "operator": "equal_to",
            "value": false
          },
          {
            "name": "_pb_IEORRES_present",
            "operator": "equal_to",
            "value": false
          }
        ]
      },
      "actions": {
        "id": "generate_variable_error",
        "params": {
          "message": "IE domain is missing one or more required variables (STUDYID, DOMAIN, USUBJID, IESEQ, IETESTCD, IETEST, IECAT, IEORRES)."
        }
      }
    },
    {
      "core_id": "SDTM-117",
      "rule_type": "VARIABLE_METADATA_CHECK",
      "executability": "Fully Executable",
      "sensitivity": "Error",
      "description": "PE domain must contain required physical examination variables.",
      "authority": "CDISC",
      "standards": [
        "sdtmig"
      ],
      "classes": [
        "Findings"
      ],
      "domains": [
        "PE"
      ],
      "datasets": [],
      "operations": [
        {
          "operator": "has_required_variables",
          "params": {
            "variables": [
              "STUDYID",
              "DOMAIN",
              "USUBJID",
              "PESEQ",
              "PETEST",
              "PEORRES"
            ]
          }
        }
      ],
      "conditions": {
        "any": [
          {
            "name": "_pb_STUDYID_present",
            "operator": "equal_to",
            "value": false
          },
          {
            "name": "_pb_DOMAIN_present",
            "operator": "equal_to",
            "value": false
          },
          {
            "name": "_pb_USUBJID_present",
            "operator": "equal_to",
            "value": false
          },
          {
            "name": "_pb_PESEQ_present",
            "operator": "equal_to",
            "value": false
          },
          {
            "name": "_pb_PETEST_present",
            "operator": "equal_to",
            "value": false
          },
          {
            "name": "_pb_PEORRES_present",
            "operator": "equal_to",
            "value": false
          }
        ]
      },
      "actions": {
        "id": "generate_variable_error",
        "params": {
          "message": "PE domain is missing one or more required variables (STUDYID, DOMAIN, USUBJID, PESEQ, PETEST, PEORRES)."
        }
      }
    },
    {
      "core_id": "SDTM-118",
      "rule_type": "VARIABLE_METADATA_CHECK",
      "executability": "Fully Executable",
      "sensitivity": "Error",
      "description": "EXDOSE must be a numeric variable in EX.",
      "authority": "CDISC",
      "standards": [
        "sdtmig"
      ],
      "classes": [
        "Interventions"
      ],
      "domains": [
        "EX"
      ],
      "datasets": [],
      "operations": [
        {
          "operator": "variable_type_check",
          "params": {
            "column": "EXDOSE",
            "expected_type": "numeric"
          }
        }
      ],
      "conditions": {
        "all": [
          {
            "name": "_pb_EXDOSE_type_valid",
            "operator": "equal_to",
            "value": false
          }
        ]
      },
      "actions": {
        "id": "generate_variable_error",
        "params": {
          "message": "EXDOSE must be a numeric variable in EX."
        }
      }
    },
    {
      "core_id": "SDTM-119",
      "rule_type": "VARIABLE_METADATA_CHECK",
      "executability": "Fully Executable",
      "sensitivity": "Error",
      "description": "VISITNUM must be a numeric variable in SV.",
      "authority": "CDISC",
      "standards": [
        "sdtmig"
      ],
      "classes": [
        "Trial Design"
      ],
      "domains": [
        "SV"
      ],
      "datasets": [],
      "operations": [
        {
          "operator": "variable_type_check",
          "params": {
            "column": "VISITNUM",
            "expected_type": "numeric"
          }
        }
      ],
      "conditions": {
        "all": [
          {
            "name": "_pb_VISITNUM_type_valid",
            "operator": "equal_to",
            "value": false
          }
        ]
      },
      "actions": {
        "id": "generate_variable_error",
        "params": {
          "message": "VISITNUM must be a numeric variable in SV."
        }
      }
    },
    {
      "core_id": "SDTM-120",
      "rule_type": "VARIABLE_METADATA_CHECK",
      "executability": "Fully Executable",
      "sensitivity": "Error",
      "description": "EGSTRESN must be a numeric variable in EG.",
      "authority": "CDISC",
      "standards": [
        "sdtmig"
      ],
      "classes": [
        "Findings"
      ],
      "domains": [
        "EG"
      ],
      "datasets": [],
      "operations": [
        {
          "operator": "variable_type_check",
          "params": {
            "column": "EGSTRESN",
            "expected_type": "numeric"
          }
        }
      ],
      "conditions": {
        "all": [
          {
            "name": "_pb_EGSTRESN_type_valid",
            "operator": "equal_to",
            "value": false
          }
        ]
      },
      "actions": {
        "id": "generate_variable_error",
        "params": {
          "message": "EGSTRESN must be a numeric variable in EG."
        }
      }
    },
    {
      "core_id": "SDTM-121",
      "rule_type": "DOMAIN_PRESENCE_CHECK",
      "executability": "Fully Executable",
      "sensitivity": "Error",
      "description": "TS domain must be present in every SDTM submission.",
      "authority": "CDISC",
      "standards": [
        "sdtmig"
      ],
      "classes": [],
      "domains": [],
      "datasets": [],
      "operations": [],
      "conditions": {},
      "actions": {
        "id": "domain_presence",
        "params": {
          "required_domains": [
            "TS"
          ],
          "prohibited_domains": [],
          "message": "TS domain must be present in every SDTM submission."
        }
      }
    },
    {
      "core_id": "SDTM-122",
      "rule_type": "DOMAIN_PRESENCE_CHECK",
      "executability": "Fully Executable",
      "sensitivity": "Warning",
      "description": "TA domain must be present in every SDTM submission.",
      "authority": "CDISC",
      "standards": [
        "sdtmig"
      ],
      "classes": [],
      "domains": [],
      "datasets": [],
      "operations": [],
      "conditions": {},
      "actions": {
        "id": "domain_presence",
        "params": {
          "required_domains": [
            "TA"
          ],
          "prohibited_domains": [],
          "message": "TA domain must be present in every SDTM submission."
        }
      }
    },
    {
      "core_id": "SDTM-123",
      "rule_type": "RECORD_CHECK",
      "executability": "Fully Executable",
      "sensitivity": "Error",
      "description": "ARMCD must not be null in TA.",
      "authority": "CDISC",
      "standards": [
        "sdtmig"
      ],
      "classes": [
        "Trial Design"
      ],
      "domains": [
        "TA"
      ],
      "datasets": [],
      "operations": [],
      "conditions": {
        "all": [
          {
            "name": "ARMCD",
            "operator": "is_null",
            "value": null
          }
        ]
      },
      "actions": {
        "id": "generate_record_error",
        "params": {
          "message": "ARMCD must not be null in TA."
        }
      }
    },
    {
      "core_id": "SDTM-124",
      "rule_type": "RECORD_CHECK",
      "executability": "Fully Executable",
      "sensitivity": "Error",
      "description": "ARM must not be null in TA.",
      "authority": "CDISC",
      "standards": [
        "sdtmig"
      ],
      "classes": [
        "Trial Design"
      ],
      "domains": [
        "TA"
      ],
      "datasets": [],
      "operations": [],
      "conditions": {
        "all": [
          {
            "name": "ARM",
            "operator": "is_null",
            "value": null
          }
        ]
      },
      "actions": {
        "id": "generate_record_error",
        "params": {
          "message": "ARM must not be null in TA."
        }
      }
    },
    {
      "core_id": "SDTM-125",
      "rule_type": "RECORD_CHECK",
      "executability": "Fully Executable",
      "sensitivity": "Error",
      "description": "TAETORD must not be null in TA.",
      "authority": "CDISC",
      "standards": [
        "sdtmig"
      ],
      "classes": [
        "Trial Design"
      ],
      "domains": [
        "TA"
      ],
      "datasets": [],
      "operations": [],
      "conditions": {
        "all": [
          {
            "name": "TAETORD",
            "operator": "is_null",
            "value": null
          }
        ]
      },
      "actions": {
        "id": "generate_record_error",
        "params": {
          "message": "TAETORD must not be null in TA."
        }
      }
    },
    {
      "core_id": "SDTM-126",
      "rule_type": "RECORD_CHECK",
      "executability": "Fully Executable",
      "sensitivity": "Error",
      "description": "EPOCH must not be null in TA.",
      "authority": "CDISC",
      "standards": [
        "sdtmig"
      ],
      "classes": [
        "Trial Design"
      ],
      "domains": [
        "TA"
      ],
      "datasets": [],
      "operations": [],
      "conditions": {
        "all": [
          {
            "name": "EPOCH",
            "operator": "is_null",
            "value": null
          }
        ]
      },
      "actions": {
        "id": "generate_record_error",
        "params": {
          "message": "EPOCH must not be null in TA."
        }
      }
    },
    {
      "core_id": "SDTM-127",
      "rule_type": "RECORD_CHECK",
      "executability": "Fully Executable",
      "sensitivity": "Error",
      "description": "ETCD must not be null in TE.",
      "authority": "CDISC",
      "standards": [
        "sdtmig"
      ],
      "classes": [
        "Trial Design"
      ],
      "domains": [
        "TE"
      ],
      "datasets": [],
      "operations": [],
      "conditions": {
        "all": [
          {
            "name": "ETCD",
            "operator": "is_null",
            "value": null
          }
        ]
      },
      "actions": {
        "id": "generate_record_error",
        "params": {
          "message": "ETCD must not be null in TE."
        }
      }
    },
    {
      "core_id": "SDTM-128",
      "rule_type": "RECORD_CHECK",
      "executability": "Fully Executable",
      "sensitivity": "Error",
      "description": "ELEMENT must not be null in TE.",
      "authority": "CDISC",
      "standards": [
        "sdtmig"
      ],
      "classes": [
        "Trial Design"
      ],
      "domains": [
        "TE"
      ],
      "datasets": [],
      "operations": [],
      "conditions": {
        "all": [
          {
            "name": "ELEMENT",
            "operator": "is_null",
            "value": null
          }
        ]
      },
      "actions": {
        "id": "generate_record_error",
        "params": {
          "message": "ELEMENT must not be null in TE."
        }
      }
    },
    {
      "core_id": "SDTM-129",
      "rule_type": "RECORD_CHECK",
      "executability": "Fully Executable",
      "sensitivity": "Error",
      "description": "VISITNUM must not be null in TV.",
      "authority": "CDISC",
      "standards": [
        "sdtmig"
      ],
      "classes": [
        "Trial Design"
      ],
      "domains": [
        "TV"
      ],
      "datasets": [],
      "operations": [],
      "conditions": {
        "all": [
          {
            "name": "VISITNUM",
            "operator": "is_null",
            "value": null
          }
        ]
      },
      "actions": {
        "id": "generate_record_error",
        "params": {
          "message": "VISITNUM must not be null in TV."
        }
      }
    },
    {
      "core_id": "SDTM-130",
      "rule_type": "RECORD_CHECK",
      "executability": "Fully Executable",
      "sensitivity": "Error",
      "description": "VISIT must not be null in TV.",
      "authority": "CDISC",
      "standards": [
        "sdtmig"
      ],
      "classes": [
        "Trial Design"
      ],
      "domains": [
        "TV"
      ],
      "datasets": [],
      "operations": [],
      "conditions": {
        "all": [
          {
            "name": "VISIT",
            "operator": "is_null",
            "value": null
          }
        ]
      },
      "actions": {
        "id": "generate_record_error",
        "params": {
          "message": "VISIT must not be null in TV."
        }
      }
    },
    {
      "core_id": "SDTM-131",
      "rule_type": "RECORD_CHECK",
      "executability": "Fully Executable",
      "sensitivity": "Error",
      "description": "IETESTCD must not be null in TI.",
      "authority": "CDISC",
      "standards": [
        "sdtmig"
      ],
      "classes": [
        "Special-Purpose"
      ],
      "domains": [
        "TI"
      ],
      "datasets": [],
      "operations": [],
      "conditions": {
        "all": [
          {
            "name": "IETESTCD",
            "operator": "is_null",
            "value": null
          }
        ]
      },
      "actions": {
        "id": "generate_record_error",
        "params": {
          "message": "IETESTCD must not be null in TI."
        }
      }
    },
    {
      "core_id": "SDTM-132",
      "rule_type": "RECORD_CHECK",
      "executability": "Fully Executable",
      "sensitivity": "Error",
      "description": "IETEST must not be null in TI.",
      "authority": "CDISC",
      "standards": [
        "sdtmig"
      ],
      "classes": [
        "Special-Purpose"
      ],
      "domains": [
        "TI"
      ],
      "datasets": [],
      "operations": [],
      "conditions": {
        "all": [
          {
            "name": "IETEST",
            "operator": "is_null",
            "value": null
          }
        ]
      },
      "actions": {
        "id": "generate_record_error",
        "params": {
          "message": "IETEST must not be null in TI."
        }
      }
    },
    {
      "core_id": "SDTM-133",
      "rule_type": "RECORD_CHECK",
      "executability": "Fully Executable",
      "sensitivity": "Error",
      "description": "IECAT in TI must use IECAT controlled terminology when present.",
      "authority": "CDISC",
      "standards": [
        "sdtmig"
      ],
      "classes": [
        "Special-Purpose"
      ],
      "domains": [
        "TI"
      ],
      "datasets": [],
      "operations": [
        {
          "operator": "codelist_check",
          "params": {
            "column": "IECAT",
            "codelist": "IECAT"
          }
        }
      ],
      "conditions": {
        "all": [
          {
            "name": "IECAT",
            "operator": "is_not_null",
            "value": null
          },
          {
            "name": "_pb_IECAT_valid",
            "operator": "equal_to",
            "value": false
          }
        ]
      },
      "actions": {
        "id": "generate_record_error",
        "params": {
          "message": "IECAT in TI contains a value not in the IECAT codelist."
        }
      }
    },
    {
      "core_id": "SDTM-134",
      "rule_type": "RECORD_CHECK",
      "executability": "Fully Executable",
      "sensitivity": "Error",
      "description": "IEINCLCR in TI must use NY controlled terminology when present.",
      "authority": "CDISC",
      "standards": [
        "sdtmig"
      ],
      "classes": [
        "Special-Purpose"
      ],
      "domains": [
        "TI"
      ],
      "datasets": [],
      "operations": [
        {
          "operator": "codelist_check",
          "params": {
            "column": "IEINCLCR",
            "codelist": "NY"
          }
        }
      ],
      "conditions": {
        "all": [
          {
            "name": "IEINCLCR",
            "operator": "is_not_null",
            "value": null
          },
          {
            "name": "_pb_IEINCLCR_valid",
            "operator": "equal_to",
            "value": false
          }
        ]
      },
      "actions": {
        "id": "generate_record_error",
        "params": {
          "message": "IEINCLCR in TI contains a value not in the NY codelist."
        }
      }
    },
    {
      "core_id": "SDTM-135",
      "rule_type": "RECORD_CHECK",
      "executability": "Fully Executable",
      "sensitivity": "Error",
      "description": "AEREL in AE must use AEREL controlled terminology when present.",
      "authority": "CDISC",
      "standards": [
        "sdtmig"
      ],
      "classes": [
        "Events"
      ],
      "domains": [
        "AE"
      ],
      "datasets": [],
      "operations": [
        {
          "operator": "codelist_check",
          "params": {
            "column": "AEREL",
            "codelist": "AEREL"
          }
        }
      ],
      "conditions": {
        "all": [
          {
            "name": "AEREL",
            "operator": "is_not_null",
            "value": null
          },
          {
            "name": "_pb_AEREL_valid",
            "operator": "equal_to",
            "value": false
          }
        ]
      },
      "actions": {
        "id": "generate_record_error",
        "params": {
          "message": "AEREL in AE contains a value not in the AEREL codelist."
        }
      }
    },
    {
      "core_id": "SDTM-136",
      "rule_type": "RECORD_CHECK",
      "executability": "Fully Executable",
      "sensitivity": "Error",
      "description": "AESDTH in AE must use NY controlled terminology when present.",
      "authority": "CDISC",
      "standards": [
        "sdtmig"
      ],
      "classes": [
        "Events"
      ],
      "domains": [
        "AE"
      ],
      "datasets": [],
      "operations": [
        {
          "operator": "codelist_check",
          "params": {
            "column": "AESDTH",
            "codelist": "NY"
          }
        }
      ],
      "conditions": {
        "all": [
          {
            "name": "AESDTH",
            "operator": "is_not_null",
            "value": null
          },
          {
            "name": "_pb_AESDTH_valid",
            "operator": "equal_to",
            "value": false
          }
        ]
      },
      "actions": {
        "id": "generate_record_error",
        "params": {
          "message": "AESDTH in AE contains a value not in the NY codelist."
        }
      }
    },
    {
      "core_id": "SDTM-137",
      "rule_type": "RECORD_CHECK",
      "executability": "Fully Executable",
      "sensitivity": "Error",
      "description": "AESHOSP in AE must use NY controlled terminology when present.",
      "authority": "CDISC",
      "standards": [
        "sdtmig"
      ],
      "classes": [
        "Events"
      ],
      "domains": [
        "AE"
      ],
      "datasets": [],
      "operations": [
        {
          "operator": "codelist_check",
          "params": {
            "column": "AESHOSP",
            "codelist": "NY"
          }
        }
      ],
      "conditions": {
        "all": [
          {
            "name": "AESHOSP",
            "operator": "is_not_null",
            "value": null
          },
          {
            "name": "_pb_AESHOSP_valid",
            "operator": "equal_to",
            "value": false
          }
        ]
      },
      "actions": {
        "id": "generate_record_error",
        "params": {
          "message": "AESHOSP in AE contains a value not in the NY codelist."
        }
      }
    },
    {
      "core_id": "SDTM-138",
      "rule_type": "RECORD_CHECK",
      "executability": "Fully Executable",
      "sensitivity": "Error",
      "description": "AESLIFE in AE must use NY controlled terminology when present.",
      "authority": "CDISC",
      "standards": [
        "sdtmig"
      ],
      "classes": [
        "Events"
      ],
      "domains": [
        "AE"
      ],
      "datasets": [],
      "operations": [
        {
          "operator": "codelist_check",
          "params": {
            "column": "AESLIFE",
            "codelist": "NY"
          }
        }
      ],
      "conditions": {
        "all": [
          {
            "name": "AESLIFE",
            "operator": "is_not_null",
            "value": null
          },
          {
            "name": "_pb_AESLIFE_valid",
            "operator": "equal_to",
            "value": false
          }
        ]
      },
      "actions": {
        "id": "generate_record_error",
        "params": {
          "message": "AESLIFE in AE contains a value not in the NY codelist."
        }
      }
    },
    {
      "core_id": "SDTM-139",
      "rule_type": "RECORD_CHECK",
      "executability": "Fully Executable",
      "sensitivity": "Error",
      "description": "EXSEQ must not be null in EX.",
      "authority": "CDISC",
      "standards": [
        "sdtmig"
      ],
      "classes": [
        "Interventions"
      ],
      "domains": [
        "EX"
      ],
      "datasets": [],
      "operations": [],
      "conditions": {
        "all": [
          {
            "name": "EXSEQ",
            "operator": "is_null",
            "value": null
          }
        ]
      },
      "actions": {
        "id": "generate_record_error",
        "params": {
          "message": "EXSEQ must not be null in EX."
        }
      }
    },
    {
      "core_id": "SDTM-140",
      "rule_type": "RECORD_CHECK",
      "executability": "Fully Executable",
      "sensitivity": "Error",
      "description": "CMSEQ must not be null in CM.",
      "authority": "CDISC",
      "standards": [
        "sdtmig"
      ],
      "classes": [
        "Interventions"
      ],
      "domains": [
        "CM"
      ],
      "datasets": [],
      "operations": [],
      "conditions": {
        "all": [
          {
            "name": "CMSEQ",
            "operator": "is_null",
            "value": null
          }
        ]
      },
      "actions": {
        "id": "generate_record_error",
        "params": {
          "message": "CMSEQ must not be null in CM."
        }
      }
    },
    {
      "core_id": "SDTM-141",
      "rule_type": "RECORD_CHECK",
      "executability": "Fully Executable",
      "sensitivity": "Error",
      "description": "MHSEQ must not be null in MH.",
      "authority": "CDISC",
      "standards": [
        "sdtmig"
      ],
      "classes": [
        "Events"
      ],
      "domains": [
        "MH"
      ],
      "datasets": [],
      "operations": [],
      "conditions": {
        "all": [
          {
            "name": "MHSEQ",
            "operator": "is_null",
            "value": null
          }
        ]
      },
      "actions": {
        "id": "generate_record_error",
        "params": {
          "message": "MHSEQ must not be null in MH."
        }
      }
    },
    {
      "core_id": "SDTM-142",
      "rule_type": "RECORD_CHECK",
      "executability": "Fully Executable",
      "sensitivity": "Error",
      "description": "EGSEQ must not be null in EG.",
      "authority": "CDISC",
      "standards": [
        "sdtmig"
      ],
      "classes": [
        "Findings"
      ],
      "domains": [
        "EG"
      ],
      "datasets": [],
      "operations": [],
      "conditions": {
        "all": [
          {
            "name": "EGSEQ",
            "operator": "is_null",
            "value": null
          }
        ]
      },
      "actions": {
        "id": "generate_record_error",
        "params": {
          "message": "EGSEQ must not be null in EG."
        }
      }
    },
    {
      "core_id": "SDTM-143",
      "rule_type": "RECORD_CHECK",
      "executability": "Fully Executable",
      "sensitivity": "Error",
      "description": "VSSEQ must not be null in VS.",
      "authority": "CDISC",
      "standards": [
        "sdtmig"
      ],
      "classes": [
        "Findings"
      ],
      "domains": [
        "VS"
      ],
      "datasets": [],
      "operations": [],
      "conditions": {
        "all": [
          {
            "name": "VSSEQ",
            "operator": "is_null",
            "value": null
          }
        ]
      },
      "actions": {
        "id": "generate_record_error",
        "params": {
          "message": "VSSEQ must not be null in VS."
        }
      }
    },
    {
      "core_id": "SDTM-144",
      "rule_type": "RECORD_CHECK",
      "executability": "Fully Executable",
      "sensitivity": "Error",
      "description": "LBSEQ must not be null in LB.",
      "authority": "CDISC",
      "standards": [
        "sdtmig"
      ],
      "classes": [
        "Findings"
      ],
      "domains": [
        "LB"
      ],
      "datasets": [],
      "operations": [],
      "conditions": {
        "all": [
          {
            "name": "LBSEQ",
            "operator": "is_null",
            "value": null
          }
        ]
      },
      "actions": {
        "id": "generate_record_error",
        "params": {
          "message": "LBSEQ must not be null in LB."
        }
      }
    },
    {
      "core_id": "SDTM-145",
      "rule_type": "RECORD_CHECK",
      "executability": "Fully Executable",
      "sensitivity": "Error",
      "description": "PESEQ must not be null in PE.",
      "authority": "CDISC",
      "standards": [
        "sdtmig"
      ],
      "classes": [
        "Findings"
      ],
      "domains": [
        "PE"
      ],
      "datasets": [],
      "operations": [],
      "conditions": {
        "all": [
          {
            "name": "PESEQ",
            "operator": "is_null",
            "value": null
          }
        ]
      },
      "actions": {
        "id": "generate_record_error",
        "params": {
          "message": "PESEQ must not be null in PE."
        }
      }
    },
    {
      "core_id": "SDTM-146",
      "rule_type": "RECORD_CHECK",
      "executability": "Fully Executable",
      "sensitivity": "Error",
      "description": "IESEQ must not be null in IE.",
      "authority": "CDISC",
      "standards": [
        "sdtmig"
      ],
      "classes": [
        "Special-Purpose"
      ],
      "domains": [
        "IE"
      ],
      "datasets": [],
      "operations": [],
      "conditions": {
        "all": [
          {
            "name": "IESEQ",
            "operator": "is_null",
            "value": null
          }
        ]
      },
      "actions": {
        "id": "generate_record_error",
        "params": {
          "message": "IESEQ must not be null in IE."
        }
      }
    },
    {
      "core_id": "SDTM-147",
      "rule_type": "DATASET_CONTENTS_CHECK",
      "executability": "Fully Executable",
      "sensitivity": "Error",
      "description": "AESEQ must be unique within USUBJID in AE.",
      "authority": "CDISC",
      "standards": [
        "sdtmig"
      ],
      "classes": [
        "Events"
      ],
      "domains": [
        "AE"
      ],
      "datasets": [],
      "operations": [
        {
          "operator": "unique_per_subject",
          "params": {
            "column": "AESEQ"
          }
        }
      ],
      "conditions": {
        "all": [
          {
            "name": "_pb_AESEQ_unique",
            "operator": "equal_to",
            "value": false
          }
        ]
      },
      "actions": {
        "id": "generate_record_error",
        "params": {
          "message": "AESEQ is not unique within USUBJID in AE."
        }
      }
    },
    {
      "core_id": "SDTM-148",
      "rule_type": "DATASET_CONTENTS_CHECK",
      "executability": "Fully Executable",
      "sensitivity": "Error",
      "description": "EXSEQ must be unique within USUBJID in EX.",
      "authority": "CDISC",
      "standards": [
        "sdtmig"
      ],
      "classes": [
        "Interventions"
      ],
      "domains": [
        "EX"
      ],
      "datasets": [],
      "operations": [
        {
          "operator": "unique_per_subject",
          "params": {
            "column": "EXSEQ"
          }
        }
      ],
      "conditions": {
        "all": [
          {
            "name": "_pb_EXSEQ_unique",
            "operator": "equal_to",
            "value": false
          }
        ]
      },
      "actions": {
        "id": "generate_record_error",
        "params": {
          "message": "EXSEQ is not unique within USUBJID in EX."
        }
      }
    },
    {
      "core_id": "SDTM-149",
      "rule_type": "DATASET_CONTENTS_CHECK",
      "executability": "Fully Executable",
      "sensitivity": "Error",
      "description": "CMSEQ must be unique within USUBJID in CM.",
      "authority": "CDISC",
      "standards": [
        "sdtmig"
      ],
      "classes": [
        "Interventions"
      ],
      "domains": [
        "CM"
      ],
      "datasets": [],
      "operations": [
        {
          "operator": "unique_per_subject",
          "params": {
            "column": "CMSEQ"
          }
        }
      ],
      "conditions": {
        "all": [
          {
            "name": "_pb_CMSEQ_unique",
            "operator": "equal_to",
            "value": false
          }
        ]
      },
      "actions": {
        "id": "generate_record_error",
        "params": {
          "message": "CMSEQ is not unique within USUBJID in CM."
        }
      }
    },
    {
      "core_id": "SDTM-150",
      "rule_type": "DATASET_CONTENTS_CHECK",
      "executability": "Fully Executable",
      "sensitivity": "Error",
      "description": "LBSEQ must be unique within USUBJID in LB.",
      "authority": "CDISC",
      "standards": [
        "sdtmig"
      ],
      "classes": [
        "Findings"
      ],
      "domains": [
        "LB"
      ],
      "datasets": [],
      "operations": [
        {
          "operator": "unique_per_subject",
          "params": {
            "column": "LBSEQ"
          }
        }
      ],
      "conditions": {
        "all": [
          {
            "name": "_pb_LBSEQ_unique",
            "operator": "equal_to",
            "value": false
          }
        ]
      },
      "actions": {
        "id": "generate_record_error",
        "params": {
          "message": "LBSEQ is not unique within USUBJID in LB."
        }
      }
    },
    {
      "core_id": "SDTM-151",
      "rule_type": "DATASET_CONTENTS_CHECK",
      "executability": "Fully Executable",
      "sensitivity": "Error",
      "description": "VSSEQ must be unique within USUBJID in VS.",
      "authority": "CDISC",
      "standards": [
        "sdtmig"
      ],
      "classes": [
        "Findings"
      ],
      "domains": [
        "VS"
      ],
      "datasets": [],
      "operations": [
        {
          "operator": "unique_per_subject",
          "params": {
            "column": "VSSEQ"
          }
        }
      ],
      "conditions": {
        "all": [
          {
            "name": "_pb_VSSEQ_unique",
            "operator": "equal_to",
            "value": false
          }
        ]
      },
      "actions": {
        "id": "generate_record_error",
        "params": {
          "message": "VSSEQ is not unique within USUBJID in VS."
        }
      }
    },
    {
      "core_id": "SDTM-152",
      "rule_type": "VARIABLE_METADATA_CHECK",
      "executability": "Fully Executable",
      "sensitivity": "Error",
      "description": "AESTDY must be numeric type in AE.",
      "authority": "CDISC",
      "standards": [
        "sdtmig"
      ],
      "classes": [
        "Events"
      ],
      "domains": [
        "AE"
      ],
      "datasets": [],
      "operations": [
        {
          "operator": "variable_type_check",
          "params": {
            "column": "AESTDY",
            "expected_type": "numeric"
          }
        }
      ],
      "conditions": {
        "all": [
          {
            "name": "_pb_AESTDY_type_valid",
            "operator": "equal_to",
            "value": false
          }
        ]
      },
      "actions": {
        "id": "generate_variable_error",
        "params": {
          "message": "AESTDY in AE must be numeric type."
        }
      }
    },
    {
      "core_id": "SDTM-153",
      "rule_type": "VARIABLE_METADATA_CHECK",
      "executability": "Fully Executable",
      "sensitivity": "Error",
      "description": "AEENDY must be numeric type in AE.",
      "authority": "CDISC",
      "standards": [
        "sdtmig"
      ],
      "classes": [
        "Events"
      ],
      "domains": [
        "AE"
      ],
      "datasets": [],
      "operations": [
        {
          "operator": "variable_type_check",
          "params": {
            "column": "AEENDY",
            "expected_type": "numeric"
          }
        }
      ],
      "conditions": {
        "all": [
          {
            "name": "_pb_AEENDY_type_valid",
            "operator": "equal_to",
            "value": false
          }
        ]
      },
      "actions": {
        "id": "generate_variable_error",
        "params": {
          "message": "AEENDY in AE must be numeric type."
        }
      }
    },
    {
      "core_id": "SDTM-154",
      "rule_type": "VARIABLE_METADATA_CHECK",
      "executability": "Fully Executable",
      "sensitivity": "Error",
      "description": "LBDY must be numeric type in LB.",
      "authority": "CDISC",
      "standards": [
        "sdtmig"
      ],
      "classes": [
        "Findings"
      ],
      "domains": [
        "LB"
      ],
      "datasets": [],
      "operations": [
        {
          "operator": "variable_type_check",
          "params": {
            "column": "LBDY",
            "expected_type": "numeric"
          }
        }
      ],
      "conditions": {
        "all": [
          {
            "name": "_pb_LBDY_type_valid",
            "operator": "equal_to",
            "value": false
          }
        ]
      },
      "actions": {
        "id": "generate_variable_error",
        "params": {
          "message": "LBDY in LB must be numeric type."
        }
      }
    },
    {
      "core_id": "SDTM-155",
      "rule_type": "VARIABLE_METADATA_CHECK",
      "executability": "Fully Executable",
      "sensitivity": "Error",
      "description": "VSDY must be numeric type in VS.",
      "authority": "CDISC",
      "standards": [
        "sdtmig"
      ],
      "classes": [
        "Findings"
      ],
      "domains": [
        "VS"
      ],
      "datasets": [],
      "operations": [
        {
          "operator": "variable_type_check",
          "params": {
            "column": "VSDY",
            "expected_type": "numeric"
          }
        }
      ],
      "conditions": {
        "all": [
          {
            "name": "_pb_VSDY_type_valid",
            "operator": "equal_to",
            "value": false
          }
        ]
      },
      "actions": {
        "id": "generate_variable_error",
        "params": {
          "message": "VSDY in VS must be numeric type."
        }
      }
    },
    {
      "core_id": "SDTM-156",
      "rule_type": "VARIABLE_METADATA_CHECK",
      "executability": "Fully Executable",
      "sensitivity": "Error",
      "description": "EXSTDY must be numeric type in EX.",
      "authority": "CDISC",
      "standards": [
        "sdtmig"
      ],
      "classes": [
        "Interventions"
      ],
      "domains": [
        "EX"
      ],
      "datasets": [],
      "operations": [
        {
          "operator": "variable_type_check",
          "params": {
            "column": "EXSTDY",
            "expected_type": "numeric"
          }
        }
      ],
      "conditions": {
        "all": [
          {
            "name": "_pb_EXSTDY_type_valid",
            "operator": "equal_to",
            "value": false
          }
        ]
      },
      "actions": {
        "id": "generate_variable_error",
        "params": {
          "message": "EXSTDY in EX must be numeric type."
        }
      }
    },
    {
      "core_id": "SDTM-157",
      "rule_type": "VARIABLE_METADATA_CHECK",
      "executability": "Fully Executable",
      "sensitivity": "Error",
      "description": "CMSTDY must be numeric type in CM.",
      "authority": "CDISC",
      "standards": [
        "sdtmig"
      ],
      "classes": [
        "Interventions"
      ],
      "domains": [
        "CM"
      ],
      "datasets": [],
      "operations": [
        {
          "operator": "variable_type_check",
          "params": {
            "column": "CMSTDY",
            "expected_type": "numeric"
          }
        }
      ],
      "conditions": {
        "all": [
          {
            "name": "_pb_CMSTDY_type_valid",
            "operator": "equal_to",
            "value": false
          }
        ]
      },
      "actions": {
        "id": "generate_variable_error",
        "params": {
          "message": "CMSTDY in CM must be numeric type."
        }
      }
    },
    {
      "core_id": "SDTM-158",
      "rule_type": "VARIABLE_METADATA_CHECK",
      "executability": "Fully Executable",
      "sensitivity": "Error",
      "description": "TA must contain required variables: STUDYID, DOMAIN, ARMCD, ARM, TAETORD, EPOCH, ELEMENT.",
      "authority": "CDISC",
      "standards": [
        "sdtmig"
      ],
      "classes": [
        "Trial Design"
      ],
      "domains": [
        "TA"
      ],
      "datasets": [],
      "operations": [
        {
          "operator": "has_required_variables",
          "params": {
            "variables": [
              "STUDYID",
              "DOMAIN",
              "ARMCD",
              "ARM",
              "TAETORD",
              "EPOCH",
              "ELEMENT"
            ]
          }
        }
      ],
      "conditions": {
        "any": [
          {
            "name": "_pb_STUDYID_present",
            "operator": "equal_to",
            "value": false
          },
          {
            "name": "_pb_DOMAIN_present",
            "operator": "equal_to",
            "value": false
          },
          {
            "name": "_pb_ARMCD_present",
            "operator": "equal_to",
            "value": false
          },
          {
            "name": "_pb_ARM_present",
            "operator": "equal_to",
            "value": false
          },
          {
            "name": "_pb_TAETORD_present",
            "operator": "equal_to",
            "value": false
          },
          {
            "name": "_pb_EPOCH_present",
            "operator": "equal_to",
            "value": false
          },
          {
            "name": "_pb_ELEMENT_present",
            "operator": "equal_to",
            "value": false
          }
        ]
      },
      "actions": {
        "id": "generate_variable_error",
        "params": {
          "message": "TA is missing one or more required variables: STUDYID, DOMAIN, ARMCD, ARM, TAETORD, EPOCH, ELEMENT."
        }
      }
    },
    {
      "core_id": "SDTM-159",
      "rule_type": "VARIABLE_METADATA_CHECK",
      "executability": "Fully Executable",
      "sensitivity": "Error",
      "description": "TE must contain required variables: STUDYID, DOMAIN, ETCD, ELEMENT.",
      "authority": "CDISC",
      "standards": [
        "sdtmig"
      ],
      "classes": [
        "Trial Design"
      ],
      "domains": [
        "TE"
      ],
      "datasets": [],
      "operations": [
        {
          "operator": "has_required_variables",
          "params": {
            "variables": [
              "STUDYID",
              "DOMAIN",
              "ETCD",
              "ELEMENT"
            ]
          }
        }
      ],
      "conditions": {
        "any": [
          {
            "name": "_pb_STUDYID_present",
            "operator": "equal_to",
            "value": false
          },
          {
            "name": "_pb_DOMAIN_present",
            "operator": "equal_to",
            "value": false
          },
          {
            "name": "_pb_ETCD_present",
            "operator": "equal_to",
            "value": false
          },
          {
            "name": "_pb_ELEMENT_present",
            "operator": "equal_to",
            "value": false
          }
        ]
      },
      "actions": {
        "id": "generate_variable_error",
        "params": {
          "message": "TE is missing one or more required variables: STUDYID, DOMAIN, ETCD, ELEMENT."
        }
      }
    },
    {
      "core_id": "SDTM-160",
      "rule_type": "VARIABLE_METADATA_CHECK",
      "executability": "Fully Executable",
      "sensitivity": "Error",
      "description": "TV must contain required variables: STUDYID, DOMAIN, VISITNUM, VISIT.",
      "authority": "CDISC",
      "standards": [
        "sdtmig"
      ],
      "classes": [
        "Trial Design"
      ],
      "domains": [
        "TV"
      ],
      "datasets": [],
      "operations": [
        {
          "operator": "has_required_variables",
          "params": {
            "variables": [
              "STUDYID",
              "DOMAIN",
              "VISITNUM",
              "VISIT"
            ]
          }
        }
      ],
      "conditions": {
        "any": [
          {
            "name": "_pb_STUDYID_present",
            "operator": "equal_to",
            "value": false
          },
          {
            "name": "_pb_DOMAIN_present",
            "operator": "equal_to",
            "value": false
          },
          {
            "name": "_pb_VISITNUM_present",
            "operator": "equal_to",
            "value": false
          },
          {
            "name": "_pb_VISIT_present",
            "operator": "equal_to",
            "value": false
          }
        ]
      },
      "actions": {
        "id": "generate_variable_error",
        "params": {
          "message": "TV is missing one or more required variables: STUDYID, DOMAIN, VISITNUM, VISIT."
        }
      }
    },
    {
      "core_id": "SDTM-161",
      "rule_type": "VARIABLE_METADATA_CHECK",
      "executability": "Fully Executable",
      "sensitivity": "Error",
      "description": "TI must contain required variables: STUDYID, DOMAIN, IETESTCD, IETEST, IECAT, IEINCLCR.",
      "authority": "CDISC",
      "standards": [
        "sdtmig"
      ],
      "classes": [
        "Special-Purpose"
      ],
      "domains": [
        "TI"
      ],
      "datasets": [],
      "operations": [
        {
          "operator": "has_required_variables",
          "params": {
            "variables": [
              "STUDYID",
              "DOMAIN",
              "IETESTCD",
              "IETEST",
              "IECAT",
              "IEINCLCR"
            ]
          }
        }
      ],
      "conditions": {
        "any": [
          {
            "name": "_pb_STUDYID_present",
            "operator": "equal_to",
            "value": false
          },
          {
            "name": "_pb_DOMAIN_present",
            "operator": "equal_to",
            "value": false
          },
          {
            "name": "_pb_IETESTCD_present",
            "operator": "equal_to",
            "value": false
          },
          {
            "name": "_pb_IETEST_present",
            "operator": "equal_to",
            "value": false
          },
          {
            "name": "_pb_IECAT_present",
            "operator": "equal_to",
            "value": false
          },
          {
            "name": "_pb_IEINCLCR_present",
            "operator": "equal_to",
            "value": false
          }
        ]
      },
      "actions": {
        "id": "generate_variable_error",
        "params": {
          "message": "TI is missing one or more required variables: STUDYID, DOMAIN, IETESTCD, IETEST, IECAT, IEINCLCR."
        }
      }
    },
    {
      "core_id": "SDTM-162",
      "rule_type": "VARIABLE_METADATA_CHECK",
      "executability": "Fully Executable",
      "sensitivity": "Error",
      "description": "VISITNUM must be present in AE.",
      "authority": "CDISC",
      "standards": [
        "sdtmig"
      ],
      "classes": [
        "Events"
      ],
      "domains": [
        "AE"
      ],
      "datasets": [],
      "operations": [
        {
          "operator": "column_presence",
          "params": {
            "column": "VISITNUM"
          }
        }
      ],
      "conditions": {
        "all": [
          {
            "name": "_pb_VISITNUM_present",
            "operator": "equal_to",
            "value": false
          }
        ]
      },
      "actions": {
        "id": "generate_variable_error",
        "params": {
          "message": "VISITNUM must be present in AE."
        }
      }
    },
    {
      "core_id": "SDTM-163",
      "rule_type": "VARIABLE_METADATA_CHECK",
      "executability": "Fully Executable",
      "sensitivity": "Error",
      "description": "VISITNUM must be present in VS.",
      "authority": "CDISC",
      "standards": [
        "sdtmig"
      ],
      "classes": [
        "Findings"
      ],
      "domains": [
        "VS"
      ],
      "datasets": [],
      "operations": [
        {
          "operator": "column_presence",
          "params": {
            "column": "VISITNUM"
          }
        }
      ],
      "conditions": {
        "all": [
          {
            "name": "_pb_VISITNUM_present",
            "operator": "equal_to",
            "value": false
          }
        ]
      },
      "actions": {
        "id": "generate_variable_error",
        "params": {
          "message": "VISITNUM must be present in VS."
        }
      }
    },
    {
      "core_id": "SDTM-164",
      "rule_type": "VARIABLE_METADATA_CHECK",
      "executability": "Fully Executable",
      "sensitivity": "Error",
      "description": "VISITNUM must be present in LB.",
      "authority": "CDISC",
      "standards": [
        "sdtmig"
      ],
      "classes": [
        "Findings"
      ],
      "domains": [
        "LB"
      ],
      "datasets": [],
      "operations": [
        {
          "operator": "column_presence",
          "params": {
            "column": "VISITNUM"
          }
        }
      ],
      "conditions": {
        "all": [
          {
            "name": "_pb_VISITNUM_present",
            "operator": "equal_to",
            "value": false
          }
        ]
      },
      "actions": {
        "id": "generate_variable_error",
        "params": {
          "message": "VISITNUM must be present in LB."
        }
      }
    },
    {
      "core_id": "SDTM-165",
      "rule_type": "VARIABLE_METADATA_CHECK",
      "executability": "Fully Executable",
      "sensitivity": "Error",
      "description": "VISITNUM must be present in EG.",
      "authority": "CDISC",
      "standards": [
        "sdtmig"
      ],
      "classes": [
        "Findings"
      ],
      "domains": [
        "EG"
      ],
      "datasets": [],
      "operations": [
        {
          "operator": "column_presence",
          "params": {
            "column": "VISITNUM"
          }
        }
      ],
      "conditions": {
        "all": [
          {
            "name": "_pb_VISITNUM_present",
            "operator": "equal_to",
            "value": false
          }
        ]
      },
      "actions": {
        "id": "generate_variable_error",
        "params": {
          "message": "VISITNUM must be present in EG."
        }
      }
    },
    {
      "core_id": "SDTM-166",
      "rule_type": "RECORD_CHECK",
      "executability": "Fully Executable",
      "sensitivity": "Error",
      "description": "QVAL must not be null in SUPP-- supplemental qualifier datasets.",
      "authority": "CDISC",
      "standards": [
        "sdtmig"
      ],
      "classes": [
        "Relationship"
      ],
      "domains": [
        "SUPPDM",
        "SUPPAE",
        "SUPPLB",
        "SUPPVS",
        "SUPPEG",
        "SUPPCM",
        "SUPPDS",
        "SUPPMH"
      ],
      "datasets": [],
      "operations": [],
      "conditions": {
        "all": [
          {
            "name": "QVAL",
            "operator": "is_null",
            "value": null
          }
        ]
      },
      "actions": {
        "id": "generate_record_error",
        "params": {
          "message": "QVAL must not be null in SUPP-- supplemental qualifier datasets."
        }
      }
    },
    {
      "core_id": "SDTM-167",
      "rule_type": "RECORD_CHECK",
      "executability": "Fully Executable",
      "sensitivity": "Error",
      "description": "TSSEQ must not be null in TS.",
      "authority": "CDISC",
      "standards": [
        "sdtmig"
      ],
      "classes": [
        "Trial Design"
      ],
      "domains": [
        "TS"
      ],
      "datasets": [],
      "operations": [],
      "conditions": {
        "all": [
          {
            "name": "TSSEQ",
            "operator": "is_null",
            "value": null
          }
        ]
      },
      "actions": {
        "id": "generate_record_error",
        "params": {
          "message": "TSSEQ must not be null in TS."
        }
      }
    },
    {
      "core_id": "SDTM-168",
      "rule_type": "VARIABLE_METADATA_CHECK",
      "executability": "Fully Executable",
      "sensitivity": "Error",
      "description": "LBSTNRLO must be numeric type in LB.",
      "authority": "CDISC",
      "standards": [
        "sdtmig"
      ],
      "classes": [
        "Findings"
      ],
      "domains": [
        "LB"
      ],
      "datasets": [],
      "operations": [
        {
          "operator": "variable_type_check",
          "params": {
            "column": "LBSTNRLO",
            "expected_type": "numeric"
          }
        }
      ],
      "conditions": {
        "all": [
          {
            "name": "_pb_LBSTNRLO_type_valid",
            "operator": "equal_to",
            "value": false
          }
        ]
      },
      "actions": {
        "id": "generate_variable_error",
        "params": {
          "message": "LBSTNRLO in LB must be numeric type."
        }
      }
    },
    {
      "core_id": "SDTM-169",
      "rule_type": "VARIABLE_METADATA_CHECK",
      "executability": "Fully Executable",
      "sensitivity": "Error",
      "description": "LBSTNRHI must be numeric type in LB.",
      "authority": "CDISC",
      "standards": [
        "sdtmig"
      ],
      "classes": [
        "Findings"
      ],
      "domains": [
        "LB"
      ],
      "datasets": [],
      "operations": [
        {
          "operator": "variable_type_check",
          "params": {
            "column": "LBSTNRHI",
            "expected_type": "numeric"
          }
        }
      ],
      "conditions": {
        "all": [
          {
            "name": "_pb_LBSTNRHI_type_valid",
            "operator": "equal_to",
            "value": false
          }
        ]
      },
      "actions": {
        "id": "generate_variable_error",
        "params": {
          "message": "LBSTNRHI in LB must be numeric type."
        }
      }
    },
    {
      "core_id": "SDTM-170",
      "rule_type": "VARIABLE_METADATA_CHECK",
      "executability": "Fully Executable",
      "sensitivity": "Error",
      "description": "LBORNRLO must be numeric type in LB.",
      "authority": "CDISC",
      "standards": [
        "sdtmig"
      ],
      "classes": [
        "Findings"
      ],
      "domains": [
        "LB"
      ],
      "datasets": [],
      "operations": [
        {
          "operator": "variable_type_check",
          "params": {
            "column": "LBORNRLO",
            "expected_type": "numeric"
          }
        }
      ],
      "conditions": {
        "all": [
          {
            "name": "_pb_LBORNRLO_type_valid",
            "operator": "equal_to",
            "value": false
          }
        ]
      },
      "actions": {
        "id": "generate_variable_error",
        "params": {
          "message": "LBORNRLO in LB must be numeric type."
        }
      }
    },
    {
      "core_id": "SDTM-171",
      "rule_type": "VARIABLE_METADATA_CHECK",
      "executability": "Fully Executable",
      "sensitivity": "Error",
      "description": "LBORNRHI must be numeric type in LB.",
      "authority": "CDISC",
      "standards": [
        "sdtmig"
      ],
      "classes": [
        "Findings"
      ],
      "domains": [
        "LB"
      ],
      "datasets": [],
      "operations": [
        {
          "operator": "variable_type_check",
          "params": {
            "column": "LBORNRHI",
            "expected_type": "numeric"
          }
        }
      ],
      "conditions": {
        "all": [
          {
            "name": "_pb_LBORNRHI_type_valid",
            "operator": "equal_to",
            "value": false
          }
        ]
      },
      "actions": {
        "id": "generate_variable_error",
        "params": {
          "message": "LBORNRHI in LB must be numeric type."
        }
      }
    },
    {
      "core_id": "SDTM-172",
      "rule_type": "VARIABLE_METADATA_CHECK",
      "executability": "Fully Executable",
      "sensitivity": "Error",
      "description": "AESEQ must be numeric type in AE.",
      "authority": "CDISC",
      "standards": [
        "sdtmig"
      ],
      "classes": [
        "Events"
      ],
      "domains": [
        "AE"
      ],
      "datasets": [],
      "operations": [
        {
          "operator": "variable_type_check",
          "params": {
            "column": "AESEQ",
            "expected_type": "numeric"
          }
        }
      ],
      "conditions": {
        "all": [
          {
            "name": "_pb_AESEQ_type_valid",
            "operator": "equal_to",
            "value": false
          }
        ]
      },
      "actions": {
        "id": "generate_variable_error",
        "params": {
          "message": "AESEQ in AE must be numeric type."
        }
      }
    },
    {
      "core_id": "SDTM-173",
      "rule_type": "VARIABLE_METADATA_CHECK",
      "executability": "Fully Executable",
      "sensitivity": "Error",
      "description": "EXSEQ must be numeric type in EX.",
      "authority": "CDISC",
      "standards": [
        "sdtmig"
      ],
      "classes": [
        "Interventions"
      ],
      "domains": [
        "EX"
      ],
      "datasets": [],
      "operations": [
        {
          "operator": "variable_type_check",
          "params": {
            "column": "EXSEQ",
            "expected_type": "numeric"
          }
        }
      ],
      "conditions": {
        "all": [
          {
            "name": "_pb_EXSEQ_type_valid",
            "operator": "equal_to",
            "value": false
          }
        ]
      },
      "actions": {
        "id": "generate_variable_error",
        "params": {
          "message": "EXSEQ in EX must be numeric type."
        }
      }
    },
    {
      "core_id": "SDTM-174",
      "rule_type": "VARIABLE_METADATA_CHECK",
      "executability": "Fully Executable",
      "sensitivity": "Error",
      "description": "CMSEQ must be numeric type in CM.",
      "authority": "CDISC",
      "standards": [
        "sdtmig"
      ],
      "classes": [
        "Interventions"
      ],
      "domains": [
        "CM"
      ],
      "datasets": [],
      "operations": [
        {
          "operator": "variable_type_check",
          "params": {
            "column": "CMSEQ",
            "expected_type": "numeric"
          }
        }
      ],
      "conditions": {
        "all": [
          {
            "name": "_pb_CMSEQ_type_valid",
            "operator": "equal_to",
            "value": false
          }
        ]
      },
      "actions": {
        "id": "generate_variable_error",
        "params": {
          "message": "CMSEQ in CM must be numeric type."
        }
      }
    },
    {
      "core_id": "SDTM-175",
      "rule_type": "VARIABLE_METADATA_CHECK",
      "executability": "Fully Executable",
      "sensitivity": "Error",
      "description": "MHSEQ must be numeric type in MH.",
      "authority": "CDISC",
      "standards": [
        "sdtmig"
      ],
      "classes": [
        "Events"
      ],
      "domains": [
        "MH"
      ],
      "datasets": [],
      "operations": [
        {
          "operator": "variable_type_check",
          "params": {
            "column": "MHSEQ",
            "expected_type": "numeric"
          }
        }
      ],
      "conditions": {
        "all": [
          {
            "name": "_pb_MHSEQ_type_valid",
            "operator": "equal_to",
            "value": false
          }
        ]
      },
      "actions": {
        "id": "generate_variable_error",
        "params": {
          "message": "MHSEQ in MH must be numeric type."
        }
      }
    },
    {
      "core_id": "SDTM-176",
      "rule_type": "VARIABLE_METADATA_CHECK",
      "executability": "Fully Executable",
      "sensitivity": "Error",
      "description": "VSSEQ must be numeric type in VS.",
      "authority": "CDISC",
      "standards": [
        "sdtmig"
      ],
      "classes": [
        "Findings"
      ],
      "domains": [
        "VS"
      ],
      "datasets": [],
      "operations": [
        {
          "operator": "variable_type_check",
          "params": {
            "column": "VSSEQ",
            "expected_type": "numeric"
          }
        }
      ],
      "conditions": {
        "all": [
          {
            "name": "_pb_VSSEQ_type_valid",
            "operator": "equal_to",
            "value": false
          }
        ]
      },
      "actions": {
        "id": "generate_variable_error",
        "params": {
          "message": "VSSEQ in VS must be numeric type."
        }
      }
    },
    {
      "core_id": "SDTM-177",
      "rule_type": "VARIABLE_METADATA_CHECK",
      "executability": "Fully Executable",
      "sensitivity": "Error",
      "description": "LBSEQ must be numeric type in LB.",
      "authority": "CDISC",
      "standards": [
        "sdtmig"
      ],
      "classes": [
        "Findings"
      ],
      "domains": [
        "LB"
      ],
      "datasets": [],
      "operations": [
        {
          "operator": "variable_type_check",
          "params": {
            "column": "LBSEQ",
            "expected_type": "numeric"
          }
        }
      ],
      "conditions": {
        "all": [
          {
            "name": "_pb_LBSEQ_type_valid",
            "operator": "equal_to",
            "value": false
          }
        ]
      },
      "actions": {
        "id": "generate_variable_error",
        "params": {
          "message": "LBSEQ in LB must be numeric type."
        }
      }
    },
    {
      "core_id": "SDTM-178",
      "rule_type": "VARIABLE_METADATA_CHECK",
      "executability": "Fully Executable",
      "sensitivity": "Error",
      "description": "EGSEQ must be numeric type in EG.",
      "authority": "CDISC",
      "standards": [
        "sdtmig"
      ],
      "classes": [
        "Findings"
      ],
      "domains": [
        "EG"
      ],
      "datasets": [],
      "operations": [
        {
          "operator": "variable_type_check",
          "params": {
            "column": "EGSEQ",
            "expected_type": "numeric"
          }
        }
      ],
      "conditions": {
        "all": [
          {
            "name": "_pb_EGSEQ_type_valid",
            "operator": "equal_to",
            "value": false
          }
        ]
      },
      "actions": {
        "id": "generate_variable_error",
        "params": {
          "message": "EGSEQ in EG must be numeric type."
        }
      }
    },
    {
      "core_id": "SDTM-179",
      "rule_type": "VARIABLE_METADATA_CHECK",
      "executability": "Fully Executable",
      "sensitivity": "Error",
      "description": "PESEQ must be numeric type in PE.",
      "authority": "CDISC",
      "standards": [
        "sdtmig"
      ],
      "classes": [
        "Findings"
      ],
      "domains": [
        "PE"
      ],
      "datasets": [],
      "operations": [
        {
          "operator": "variable_type_check",
          "params": {
            "column": "PESEQ",
            "expected_type": "numeric"
          }
        }
      ],
      "conditions": {
        "all": [
          {
            "name": "_pb_PESEQ_type_valid",
            "operator": "equal_to",
            "value": false
          }
        ]
      },
      "actions": {
        "id": "generate_variable_error",
        "params": {
          "message": "PESEQ in PE must be numeric type."
        }
      }
    },
    {
      "core_id": "SDTM-180",
      "rule_type": "VARIABLE_METADATA_CHECK",
      "executability": "Fully Executable",
      "sensitivity": "Error",
      "description": "DSSEQ must be numeric type in DS.",
      "authority": "CDISC",
      "standards": [
        "sdtmig"
      ],
      "classes": [
        "Events"
      ],
      "domains": [
        "DS"
      ],
      "datasets": [],
      "operations": [
        {
          "operator": "variable_type_check",
          "params": {
            "column": "DSSEQ",
            "expected_type": "numeric"
          }
        }
      ],
      "conditions": {
        "all": [
          {
            "name": "_pb_DSSEQ_type_valid",
            "operator": "equal_to",
            "value": false
          }
        ]
      },
      "actions": {
        "id": "generate_variable_error",
        "params": {
          "message": "DSSEQ in DS must be numeric type."
        }
      }
    },
    {
      "core_id": "SDTM-181",
      "rule_type": "RECORD_CHECK",
      "executability": "Fully Executable",
      "sensitivity": "Error",
      "description": "DOMAIN column value must equal 'DM' in the DM dataset.",
      "authority": "CDISC",
      "standards": [
        "sdtmig"
      ],
      "classes": [
        "Special-Purpose"
      ],
      "domains": [
        "DM"
      ],
      "datasets": [],
      "operations": [],
      "conditions": {
        "all": [
          {
            "name": "DOMAIN",
            "operator": "is_not_null",
            "value": null
          },
          {
            "name": "DOMAIN",
            "operator": "not_equal_to",
            "value": "DM"
          }
        ]
      },
      "actions": {
        "id": "generate_record_error",
        "params": {
          "message": "DOMAIN value must be 'DM' in the DM dataset."
        }
      }
    },
    {
      "core_id": "SDTM-182",
      "rule_type": "RECORD_CHECK",
      "executability": "Fully Executable",
      "sensitivity": "Error",
      "description": "DOMAIN column value must equal 'AE' in the AE dataset.",
      "authority": "CDISC",
      "standards": [
        "sdtmig"
      ],
      "classes": [
        "Events"
      ],
      "domains": [
        "AE"
      ],
      "datasets": [],
      "operations": [],
      "conditions": {
        "all": [
          {
            "name": "DOMAIN",
            "operator": "is_not_null",
            "value": null
          },
          {
            "name": "DOMAIN",
            "operator": "not_equal_to",
            "value": "AE"
          }
        ]
      },
      "actions": {
        "id": "generate_record_error",
        "params": {
          "message": "DOMAIN value must be 'AE' in the AE dataset."
        }
      }
    },
    {
      "core_id": "SDTM-183",
      "rule_type": "RECORD_CHECK",
      "executability": "Fully Executable",
      "sensitivity": "Error",
      "description": "DOMAIN column value must equal 'LB' in the LB dataset.",
      "authority": "CDISC",
      "standards": [
        "sdtmig"
      ],
      "classes": [
        "Findings"
      ],
      "domains": [
        "LB"
      ],
      "datasets": [],
      "operations": [],
      "conditions": {
        "all": [
          {
            "name": "DOMAIN",
            "operator": "is_not_null",
            "value": null
          },
          {
            "name": "DOMAIN",
            "operator": "not_equal_to",
            "value": "LB"
          }
        ]
      },
      "actions": {
        "id": "generate_record_error",
        "params": {
          "message": "DOMAIN value must be 'LB' in the LB dataset."
        }
      }
    },
    {
      "core_id": "SDTM-184",
      "rule_type": "RECORD_CHECK",
      "executability": "Fully Executable",
      "sensitivity": "Error",
      "description": "DOMAIN column value must equal 'VS' in the VS dataset.",
      "authority": "CDISC",
      "standards": [
        "sdtmig"
      ],
      "classes": [
        "Findings"
      ],
      "domains": [
        "VS"
      ],
      "datasets": [],
      "operations": [],
      "conditions": {
        "all": [
          {
            "name": "DOMAIN",
            "operator": "is_not_null",
            "value": null
          },
          {
            "name": "DOMAIN",
            "operator": "not_equal_to",
            "value": "VS"
          }
        ]
      },
      "actions": {
        "id": "generate_record_error",
        "params": {
          "message": "DOMAIN value must be 'VS' in the VS dataset."
        }
      }
    },
    {
      "core_id": "SDTM-185",
      "rule_type": "RECORD_CHECK",
      "executability": "Fully Executable",
      "sensitivity": "Error",
      "description": "DOMAIN column value must equal 'EX' in the EX dataset.",
      "authority": "CDISC",
      "standards": [
        "sdtmig"
      ],
      "classes": [
        "Interventions"
      ],
      "domains": [
        "EX"
      ],
      "datasets": [],
      "operations": [],
      "conditions": {
        "all": [
          {
            "name": "DOMAIN",
            "operator": "is_not_null",
            "value": null
          },
          {
            "name": "DOMAIN",
            "operator": "not_equal_to",
            "value": "EX"
          }
        ]
      },
      "actions": {
        "id": "generate_record_error",
        "params": {
          "message": "DOMAIN value must be 'EX' in the EX dataset."
        }
      }
    },
    {
      "core_id": "SDTM-186",
      "rule_type": "RECORD_CHECK",
      "executability": "Fully Executable",
      "sensitivity": "Error",
      "description": "DOMAIN column value must equal 'CM' in the CM dataset.",
      "authority": "CDISC",
      "standards": [
        "sdtmig"
      ],
      "classes": [
        "Interventions"
      ],
      "domains": [
        "CM"
      ],
      "datasets": [],
      "operations": [],
      "conditions": {
        "all": [
          {
            "name": "DOMAIN",
            "operator": "is_not_null",
            "value": null
          },
          {
            "name": "DOMAIN",
            "operator": "not_equal_to",
            "value": "CM"
          }
        ]
      },
      "actions": {
        "id": "generate_record_error",
        "params": {
          "message": "DOMAIN value must be 'CM' in the CM dataset."
        }
      }
    },
    {
      "core_id": "SDTM-187",
      "rule_type": "RECORD_CHECK",
      "executability": "Fully Executable",
      "sensitivity": "Error",
      "description": "DOMAIN column value must equal 'DS' in the DS dataset.",
      "authority": "CDISC",
      "standards": [
        "sdtmig"
      ],
      "classes": [
        "Events"
      ],
      "domains": [
        "DS"
      ],
      "datasets": [],
      "operations": [],
      "conditions": {
        "all": [
          {
            "name": "DOMAIN",
            "operator": "is_not_null",
            "value": null
          },
          {
            "name": "DOMAIN",
            "operator": "not_equal_to",
            "value": "DS"
          }
        ]
      },
      "actions": {
        "id": "generate_record_error",
        "params": {
          "message": "DOMAIN value must be 'DS' in the DS dataset."
        }
      }
    },
    {
      "core_id": "SDTM-188",
      "rule_type": "RECORD_CHECK",
      "executability": "Fully Executable",
      "sensitivity": "Error",
      "description": "DOMAIN column value must equal 'MH' in the MH dataset.",
      "authority": "CDISC",
      "standards": [
        "sdtmig"
      ],
      "classes": [
        "Events"
      ],
      "domains": [
        "MH"
      ],
      "datasets": [],
      "operations": [],
      "conditions": {
        "all": [
          {
            "name": "DOMAIN",
            "operator": "is_not_null",
            "value": null
          },
          {
            "name": "DOMAIN",
            "operator": "not_equal_to",
            "value": "MH"
          }
        ]
      },
      "actions": {
        "id": "generate_record_error",
        "params": {
          "message": "DOMAIN value must be 'MH' in the MH dataset."
        }
      }
    },
    {
      "core_id": "SDTM-189",
      "rule_type": "RECORD_CHECK",
      "executability": "Fully Executable",
      "sensitivity": "Error",
      "description": "DOMAIN column value must equal 'EG' in the EG dataset.",
      "authority": "CDISC",
      "standards": [
        "sdtmig"
      ],
      "classes": [
        "Findings"
      ],
      "domains": [
        "EG"
      ],
      "datasets": [],
      "operations": [],
      "conditions": {
        "all": [
          {
            "name": "DOMAIN",
            "operator": "is_not_null",
            "value": null
          },
          {
            "name": "DOMAIN",
            "operator": "not_equal_to",
            "value": "EG"
          }
        ]
      },
      "actions": {
        "id": "generate_record_error",
        "params": {
          "message": "DOMAIN value must be 'EG' in the EG dataset."
        }
      }
    },
    {
      "core_id": "SDTM-190",
      "rule_type": "RECORD_CHECK",
      "executability": "Fully Executable",
      "sensitivity": "Error",
      "description": "DOMAIN column value must equal 'TA' in the TA dataset.",
      "authority": "CDISC",
      "standards": [
        "sdtmig"
      ],
      "classes": [
        "Trial Design"
      ],
      "domains": [
        "TA"
      ],
      "datasets": [],
      "operations": [],
      "conditions": {
        "all": [
          {
            "name": "DOMAIN",
            "operator": "is_not_null",
            "value": null
          },
          {
            "name": "DOMAIN",
            "operator": "not_equal_to",
            "value": "TA"
          }
        ]
      },
      "actions": {
        "id": "generate_record_error",
        "params": {
          "message": "DOMAIN value must be 'TA' in the TA dataset."
        }
      }
    },
    {
      "core_id": "SDTM-191",
      "rule_type": "RECORD_CHECK",
      "executability": "Fully Executable",
      "sensitivity": "Error",
      "description": "RFXSTDTC in DM must conform to ISO 8601 format when present (date of first exposure to trial treatment).",
      "authority": "CDISC",
      "standards": [
        "sdtmig"
      ],
      "classes": [
        "Special-Purpose"
      ],
      "domains": [
        "DM"
      ],
      "datasets": [],
      "operations": [
        {
          "operator": "iso8601_check",
          "params": {
            "column": "RFXSTDTC"
          }
        }
      ],
      "conditions": {
        "all": [
          {
            "name": "RFXSTDTC",
            "operator": "is_not_null",
            "value": null
          },
          {
            "name": "_pb_RFXSTDTC_iso8601",
            "operator": "equal_to",
            "value": false
          }
        ]
      },
      "actions": {
        "id": "generate_record_error",
        "params": {
          "message": "RFXSTDTC must conform to ISO 8601 format in DM."
        }
      }
    },
    {
      "core_id": "SDTM-192",
      "rule_type": "RECORD_CHECK",
      "executability": "Fully Executable",
      "sensitivity": "Error",
      "description": "RFXENDTC in DM must conform to ISO 8601 format when present (date of last exposure to trial treatment).",
      "authority": "CDISC",
      "standards": [
        "sdtmig"
      ],
      "classes": [
        "Special-Purpose"
      ],
      "domains": [
        "DM"
      ],
      "datasets": [],
      "operations": [
        {
          "operator": "iso8601_check",
          "params": {
            "column": "RFXENDTC"
          }
        }
      ],
      "conditions": {
        "all": [
          {
            "name": "RFXENDTC",
            "operator": "is_not_null",
            "value": null
          },
          {
            "name": "_pb_RFXENDTC_iso8601",
